host_timestamp,arduino_timestamp,ax,ay,az,gx,gy,gz,temperature
50893847806400,107539,0.0479,-0.0072,-9.5904,0.0208,-0.0586,-0.0305,23.55
50893859576800,107550,0.0502,-0.0084,-9.5916,0.0208,-0.0586,-0.0293,23.51
50893870776200,107562,0.0502,-0.0048,-9.5880,0.0208,-0.0599,-0.0281,23.51
50893881701600,107573,0.0491,-0.0203,-9.5833,0.0195,-0.0599,-0.0281,23.57
50893893334800,107584,0.0479,-0.0191,-9.5713,0.0208,-0.0586,-0.0293,23.53
50893904732500,107596,0.0455,-0.0179,-9.5773,0.0208,-0.0599,-0.0293,23.53
50893916191300,107607,0.0479,-0.0036,-9.5976,0.0195,-0.0599,-0.0293,23.52
50893927361900,107618,0.0514,0.0012,-9.5856,0.0208,-0.0599,-0.0305,23.52
50893938672600,107630,0.0526,-0.0072,-9.5761,0.0208,-0.0599,-0.0293,23.52
50893949954600,107641,0.0562,-0.0096,-9.5928,0.0195,-0.0586,-0.0293,23.52
50893961328300,107652,0.0491,-0.0084,-9.5904,0.0208,-0.0586,-0.0293,23.52
50893972608200,107664,0.0431,-0.0156,-9.5892,0.0195,-0.0586,-0.0305,23.57
50893984151400,107675,0.0479,-0.0096,-9.5845,0.0208,-0.0586,-0.0305,23.57
50893995252500,107686,0.0455,-0.0144,-9.5821,0.0208,-0.0574,-0.0318,23.54
50894006506800,107698,0.0455,-0.0120,-9.5833,0.0208,-0.0574,-0.0318,23.54
50894018436600,107709,0.0514,-0.0120,-9.5856,0.0208,-0.0574,-0.0318,23.51
50894029111900,107720,0.0491,-0.0156,-9.5856,0.0208,-0.0574,-0.0305,23.51
50894040427300,107732,0.0479,-0.0096,-9.5916,0.0208,-0.0586,-0.0293,23.56
50894051889300,107743,0.0479,-0.0144,-9.5737,0.0208,-0.0586,-0.0293,23.52
50894063061100,107754,0.0491,-0.0108,-9.5916,0.0208,-0.0586,-0.0293,23.52
50894074416200,107766,0.0526,-0.0156,-9.5928,0.0208,-0.0586,-0.0293,23.52
50894085775400,107777,0.0491,-0.0108,-9.5749,0.0195,-0.0586,-0.0293,23.52
50894097080300,107788,0.0479,-0.0048,-9.5833,0.0208,-0.0586,-0.0293,23.58
50894108385900,107800,0.0502,-0.0120,-9.5940,0.0195,-0.0586,-0.0305,23.58
50894119697600,107811,0.0455,-0.0132,-9.5701,0.0195,-0.0586,-0.0293,23.55
50894130983400,107822,0.0514,-0.0096,-9.5641,0.0208,-0.0586,-0.0293,23.55
50894142324700,107833,0.0491,-0.0120,-9.5940,0.0208,-0.0599,-0.0305,23.46
50894153395800,107845,0.0491,-0.0108,-9.5785,0.0208,-0.0599,-0.0293,23.54
50894165014200,107856,0.0538,-0.0132,-9.5833,0.0208,-0.0586,-0.0293,23.54
50894176364300,107867,0.0550,-0.0132,-9.5916,0.0195,-0.0586,-0.0293,23.51
50894187789300,107879,0.0467,-0.0084,-9.5833,0.0208,-0.0586,-0.0293,23.51
50894198952700,107890,0.0419,-0.0048,-9.5880,0.0208,-0.0586,-0.0293,23.53
50894210347200,107901,0.0491,-0.0060,-9.5940,0.0208,-0.0586,-0.0305,23.53
50894221684600,107913,0.0467,-0.0084,-9.5797,0.0208,-0.0586,-0.0305,23.53
50894232940900,107924,0.0491,-0.0048,-9.5821,0.0208,-0.0586,-0.0305,23.53
50894244343900,107935,0.0526,-0.0060,-9.5940,0.0208,-0.0586,-0.0293,23.53
50894255632300,107947,0.0491,-0.0132,-9.5928,0.0208,-0.0586,-0.0293,23.55
50894266464900,107958,0.0479,-0.0179,-9.5845,0.0208,-0.0586,-0.0293,23.55
50894278360300,107969,0.0502,-0.0120,-9.5892,0.0208,-0.0586,-0.0293,23.54
50894289616000,107981,0.0455,-0.0084,-9.5916,0.0208,-0.0586,-0.0305,23.54
50894300969500,107992,0.0431,-0.0156,-9.5856,0.0208,-0.0586,-0.0293,23.53
50894312202400,108003,0.0467,-0.0156,-9.5868,0.0208,-0.0586,-0.0293,23.52
50894323469500,108015,0.0502,-0.0108,-9.5916,0.0208,-0.0586,-0.0293,23.52
50894334940800,108026,0.0514,-0.0048,-9.5904,0.0208,-0.0586,-0.0293,23.54
50894346135200,108037,0.0550,-0.0012,-9.5880,0.0208,-0.0586,-0.0293,23.54
50894357361100,108049,0.0586,-0.0012,-9.5904,0.0208,-0.0586,-0.0305,23.52
50894368764700,108060,0.0550,-0.0036,-9.5868,0.0208,-0.0586,-0.0293,23.52
50894380009800,108071,0.0514,-0.0072,-9.5809,0.0208,-0.0586,-0.0293,23.56
50894391344100,108083,0.0491,-0.0156,-9.5892,0.0208,-0.0586,-0.0293,23.56
50894402707900,108094,0.0407,-0.0167,-9.5880,0.0208,-0.0586,-0.0293,23.56
50894414049800,108105,0.0395,-0.0203,-9.5856,0.0208,-0.0586,-0.0305,23.53
50894425391700,108117,0.0455,-0.0167,-9.5892,0.0208,-0.0586,-0.0293,23.53
50894436741200,108128,0.0455,-0.0156,-9.5868,0.0208,-0.0586,-0.0293,23.53
50894448099700,108139,0.0443,-0.0132,-9.5809,0.0208,-0.0586,-0.0293,23.53
50894459666300,108151,0.0419,-0.0096,-9.5856,0.0208,-0.0599,-0.0293,23.54
50894470943700,108162,0.0467,-0.0084,-9.5952,0.0208,-0.0599,-0.0305,23.54
50894482186900,108173,0.0491,-0.0096,-9.5773,0.0208,-0.0586,-0.0293,23.54
50894493460400,108185,0.0491,-0.0096,-9.5845,0.0208,-0.0586,-0.0293,23.55
50894504730000,108196,0.0443,-0.0120,-9.5845,0.0208,-0.0599,-0.0293,23.55
50894516175000,108207,0.0502,-0.0120,-9.5868,0.0208,-0.0586,-0.0293,23.55
50894526994700,108219,0.0514,-0.0072,-9.5856,0.0208,-0.0586,-0.0293,23.55
50894538796400,108230,0.0467,-0.0084,-9.5833,0.0208,-0.0586,-0.0293,23.55
50894550072400,108241,0.0467,-0.0096,-9.5880,0.0208,-0.0586,-0.0293,23.55
50894561401100,108253,0.0431,-0.0144,-9.5833,0.0208,-0.0586,-0.0293,23.52
50894572781100,108264,0.0467,-0.0096,-9.5856,0.0195,-0.0586,-0.0293,23.55
50894584139700,108275,0.0479,-0.0120,-9.5904,0.0208,-0.0586,-0.0293,23.55
50894595412300,108287,0.0491,-0.0132,-9.5880,0.0195,-0.0586,-0.0293,23.55
50894607021900,108298,0.0491,-0.0144,-9.5833,0.0208,-0.0586,-0.0293,23.55
50894618220400,108309,0.0502,-0.0156,-9.5821,0.0208,-0.0574,-0.0293,23.52
50894629443400,108320,0.0491,-0.0108,-9.5892,0.0208,-0.0586,-0.0293,23.52
50894640748100,108332,0.0491,-0.0048,-9.5904,0.0208,-0.0586,-0.0305,23.54
50894652057700,108343,0.0491,-0.0024,-9.5880,0.0208,-0.0586,-0.0293,23.52
50894663362100,108355,0.0443,-0.0048,-9.5868,0.0195,-0.0586,-0.0305,23.52
50894674851200,108366,0.0371,-0.0048,-9.5868,0.0208,-0.0586,-0.0305,23.54
50894687209000,108377,0.0491,-0.0072,-9.5892,0.0208,-0.0574,-0.0305,23.54
50894697479100,108389,0.0526,-0.0108,-9.5904,0.0208,-0.0586,-0.0305,23.56
50894708744100,108400,0.0407,-0.0132,-9.5952,0.0208,-0.0586,-0.0293,23.56
50894720000200,108411,0.0431,-0.0156,-9.5880,0.0208,-0.0586,-0.0281,23.55
50894731354800,108422,0.0491,-0.0072,-9.5856,0.0208,-0.0574,-0.0305,23.55
50894742878100,108434,0.0491,-0.0060,-9.5809,0.0208,-0.0586,-0.0293,23.55
50894754221200,108445,0.0479,-0.0084,-9.5809,0.0208,-0.0586,-0.0293,23.55
50894765035200,108456,0.0443,-0.0084,-9.5892,0.0208,-0.0574,-0.0305,23.55
50894776203700,108468,0.0431,-0.0108,-9.5833,0.0208,-0.0586,-0.0293,23.55
50894787569300,108479,0.0431,-0.0156,-9.5797,0.0195,-0.0586,-0.0293,23.55
50894798873700,108490,0.0419,-0.0132,-9.5868,0.0195,-0.0586,-0.0305,23.55
50894810092600,108502,0.0419,-0.0072,-9.5952,0.0208,-0.0586,-0.0293,23.55
50894821558700,108513,0.0479,-0.0132,-9.5809,0.0208,-0.0586,-0.0305,23.57
50894833386900,108524,0.0538,-0.0132,-9.5845,0.0195,-0.0586,-0.0293,23.54
50894844858400,108536,0.0574,-0.0096,-9.5833,0.0208,-0.0586,-0.0293,23.54
50894856168900,108547,0.0550,-0.0084,-9.5833,0.0208,-0.0586,-0.0293,23.55
50894867592400,108558,0.0562,-0.0144,-9.5880,0.0208,-0.0586,-0.0293,23.55
50894878948600,108570,0.0502,-0.0120,-9.5904,0.0208,-0.0586,-0.0293,23.48
50894889955600,108581,0.0431,-0.0084,-9.5880,0.0208,-0.0586,-0.0293,23.48
50894901281500,108592,0.0574,-0.0096,-9.5916,0.0208,-0.0586,-0.0293,23.54
50894912974000,108604,0.0514,-0.0060,-9.5845,0.0208,-0.0586,-0.0305,23.57
50894924373200,108615,0.0491,-0.0048,-9.5892,0.0195,-0.0586,-0.0305,23.57
50894934946300,108626,0.0479,-0.0012,-9.5940,0.0208,-0.0574,-0.0293,23.54
50894946935200,108638,0.0467,-0.0048,-9.5856,0.0208,-0.0586,-0.0293,23.54
50894958184700,108649,0.0467,-0.0120,-9.5797,0.0195,-0.0586,-0.0293,23.59
50894969459500,108660,0.0455,-0.0144,-9.5904,0.0195,-0.0574,-0.0293,23.59
50894980167200,108672,0.0479,-0.0179,-9.5952,0.0195,-0.0586,-0.0293,23.54
50894992107900,108683,0.0526,-0.0179,-9.5856,0.0208,-0.0586,-0.0293,23.54
50895003362800,108694,0.0526,-0.0251,-9.5952,0.0220,-0.0586,-0.0293,23.54
50895014815600,108706,0.0491,-0.0263,-9.5916,0.0208,-0.0586,-0.0293,23.56
50895026119700,108717,0.0467,-0.0203,-9.5880,0.0208,-0.0586,-0.0293,23.56
50895037430900,108728,0.0443,-0.0132,-9.5856,0.0195,-0.0574,-0.0305,23.51
50895048651200,108740,0.0514,-0.0036,-9.5856,0.0183,-0.0586,-0.0305,23.51
50895059862400,108751,0.0514,0.0060,-9.5904,0.0195,-0.0574,-0.0305,23.48
50895071117400,108762,0.0526,0.0060,-9.5833,0.0195,-0.0586,-0.0293,23.53
50895082390900,108774,0.0455,-0.0072,-9.5761,0.0208,-0.0586,-0.0293,23.53
50895093762200,108785,0.0395,-0.0203,-9.5653,0.0208,-0.0586,-0.0293,23.54
50895105045300,108796,0.0419,-0.0287,-9.5845,0.0220,-0.0586,-0.0281,23.54
50895116334400,108808,0.0419,-0.0251,-9.5952,0.0208,-0.0586,-0.0293,23.50
50895127650700,108819,0.0467,-0.0239,-9.5868,0.0208,-0.0599,-0.0293,23.50
50895139130200,108830,0.0502,-0.0179,-9.5868,0.0208,-0.0586,-0.0293,23.52
50895150466300,108842,0.0479,-0.0072,-9.5856,0.0208,-0.0574,-0.0293,23.52
50895161756000,108853,0.0586,0.0012,-9.5833,0.0208,-0.0586,-0.0293,23.54
50895173055900,108864,0.0550,-0.0048,-9.5833,0.0208,-0.0586,-0.0293,23.52
50895184302100,108876,0.0467,-0.0167,-9.5856,0.0208,-0.0586,-0.0305,23.52
50895195696600,108887,0.0407,-0.0167,-9.5856,0.0208,-0.0574,-0.0305,23.55
50895207001100,108898,0.0383,-0.0132,-9.5821,0.0208,-0.0586,-0.0305,23.55
50895218306100,108910,0.0395,-0.0120,-9.5833,0.0195,-0.0586,-0.0305,23.54
50895229673100,108921,0.0467,-0.0084,-9.5809,0.0208,-0.0574,-0.0293,23.54
50895240986100,108932,0.0526,-0.0108,-9.5856,0.0220,-0.0586,-0.0293,23.53
50895252308800,108944,0.0467,-0.0072,-9.5809,0.0208,-0.0599,-0.0293,23.55
50895263693000,108955,0.0455,-0.0132,-9.5809,0.0208,-0.0586,-0.0293,23.55
50895274987700,108966,0.0467,-0.0167,-9.5868,0.0208,-0.0574,-0.0305,23.54
50895286328100,108978,0.0491,-0.0156,-9.5856,0.0208,-0.0586,-0.0305,23.54
50895297608600,108989,0.0550,-0.0156,-9.5845,0.0195,-0.0574,-0.0305,23.54
50895309010400,109000,0.0538,-0.0120,-9.5833,0.0208,-0.0586,-0.0293,23.54
50895320380800,109011,0.0502,-0.0084,-9.5880,0.0208,-0.0586,-0.0293,23.54
50895331661200,109023,0.0502,-0.0048,-9.5868,0.0208,-0.0586,-0.0293,23.54
50895343071200,109034,0.0443,-0.0096,-9.5928,0.0208,-0.0586,-0.0293,23.54
50895354301000,109045,0.0407,-0.0156,-9.5868,0.0208,-0.0586,-0.0293,23.55
50895365525000,109057,0.0431,-0.0203,-9.5821,0.0208,-0.0586,-0.0293,23.55
50895376747300,109068,0.0431,-0.0251,-9.5868,0.0208,-0.0586,-0.0293,23.51
50895388031000,109079,0.0455,-0.0311,-9.5809,0.0208,-0.0586,-0.0281,23.51
50895399349400,109091,0.0479,-0.0359,-9.5809,0.0208,-0.0586,-0.0281,23.55
50895410710400,109102,0.0514,-0.0072,-9.5880,0.0195,-0.0599,-0.0269,23.55
50895422137600,109113,0.0526,0.0275,-9.5809,0.0195,-0.0599,-0.0281,23.53
50895433528500,109125,0.0574,0.0598,-9.5880,0.0195,-0.0599,-0.0281,23.57
50895444777100,109136,0.0622,0.0634,-9.5904,0.0208,-0.0599,-0.0293,23.57
50895456023200,109147,0.0574,0.0323,-9.5845,0.0208,-0.0599,-0.0293,23.53
50895467471100,109159,0.0491,-0.0120,-9.5761,0.0220,-0.0599,-0.0318,23.53
50895478678200,109170,0.0359,-0.0598,-9.5821,0.0208,-0.0586,-0.0318,23.57
50895490046000,109181,0.0287,-0.0861,-9.5880,0.0220,-0.0586,-0.0305,23.57
50895501384600,109193,0.0407,-0.0502,-9.5856,0.0195,-0.0586,-0.0281,23.56
50895512701900,109204,0.0479,-0.0096,-9.5880,0.0195,-0.0586,-0.0293,23.54
50895523937000,109215,0.0562,0.0239,-9.5809,0.0195,-0.0586,-0.0293,23.54
50895535343700,109227,0.0646,0.0359,-9.5761,0.0195,-0.0586,-0.0305,23.57
50895546660800,109238,0.0574,0.0275,-9.5845,0.0195,-0.0586,-0.0305,23.57
50895558123600,109249,0.0479,0.0060,-9.5880,0.0208,-0.0586,-0.0293,23.56
50895569575700,109261,0.0479,-0.0203,-9.5845,0.0208,-0.0586,-0.0305,23.56
50895580800200,109272,0.0395,-0.0431,-9.5868,0.0208,-0.0599,-0.0293,23.57
50895592095400,109283,0.0431,-0.0275,-9.5856,0.0208,-0.0586,-0.0281,23.59
50895603423300,109295,0.0455,-0.0072,-9.5868,0.0208,-0.0586,-0.0293,23.59
50895614867700,109306,0.0574,0.0024,-9.5916,0.0195,-0.0574,-0.0293,23.56
50895626185700,109317,0.0586,0.0096,-9.5904,0.0195,-0.0586,-0.0293,23.56
50895637378400,109329,0.0514,0.0012,-9.5821,0.0208,-0.0574,-0.0305,23.55
50895648644000,109340,0.0491,-0.0179,-9.5845,0.0208,-0.0586,-0.0305,23.55
50895659914400,109351,0.0479,-0.0287,-9.5892,0.0195,-0.0586,-0.0305,23.54
50895671206500,109362,0.0407,-0.0191,-9.5904,0.0208,-0.0586,-0.0293,23.53
50895682507300,109374,0.0431,-0.0084,-9.5928,0.0208,-0.0586,-0.0293,23.53
50895693810400,109385,0.0502,0.0012,-9.5833,0.0208,-0.0586,-0.0293,23.54
50895705169300,109396,0.0562,0.0120,-9.5785,0.0208,-0.0586,-0.0293,23.54
50895716500400,109408,0.0526,0.0108,-9.5845,0.0208,-0.0586,-0.0293,23.56
50895727777900,109419,0.0443,0.0036,-9.5821,0.0208,-0.0586,-0.0305,23.56
50895739125400,109430,0.0467,-0.0060,-9.5689,0.0195,-0.0586,-0.0305,23.59
50895750527300,109442,0.0526,-0.0323,-9.6096,0.0208,-0.0574,-0.0305,23.59
50895761863200,109453,0.0491,-0.0311,-9.5665,0.0195,-0.0574,-0.0293,23.54
50895780006000,109464,0.0431,-0.0167,-9.5797,0.0208,-0.0574,-0.0293,23.55
50895791411600,109482,0.0479,0.0036,-9.5821,0.0195,-0.0586,-0.0293,23.57
50895802743200,109494,0.0526,0.0120,-9.5737,0.0208,-0.0586,-0.0305,23.57
50895814040300,109505,0.0550,0.0120,-9.5845,0.0208,-0.0586,-0.0305,23.60
50895825360800,109516,0.0586,0.0060,-9.5916,0.0208,-0.0586,-0.0305,23.60
50895836652000,109528,0.0514,-0.0096,-9.5809,0.0208,-0.0574,-0.0293,23.56
50895847925200,109539,0.0491,-0.0215,-9.5809,0.0208,-0.0586,-0.0293,23.56
50895859338600,109550,0.0514,-0.0239,-9.5940,0.0208,-0.0586,-0.0305,23.57
50895870782600,109562,0.0455,-0.0167,-9.5773,0.0208,-0.0574,-0.0293,23.59
50895882074400,109573,0.0526,-0.0120,-9.5809,0.0208,-0.0586,-0.0305,23.59
50895893337900,109584,0.0526,-0.0120,-9.5892,0.0208,-0.0586,-0.0293,23.57
50895904716600,109596,0.0514,-0.0084,-9.5928,0.0195,-0.0599,-0.0305,23.57
50895915968400,109607,0.0538,-0.0084,-9.5892,0.0208,-0.0586,-0.0305,23.58
50895927348500,109618,0.0550,-0.0120,-9.5916,0.0208,-0.0586,-0.0293,23.58
50895938670500,109630,0.0502,-0.0084,-9.5880,0.0195,-0.0586,-0.0293,23.56
50895950067400,109641,0.0419,-0.0036,-9.5868,0.0208,-0.0586,-0.0293,23.56
50895961599500,109652,0.0443,-0.0024,-9.5856,0.0208,-0.0586,-0.0293,23.60
50895972183000,109664,0.0455,-0.0096,-9.5833,0.0195,-0.0574,-0.0305,23.59
50895984169400,109675,0.0479,-0.0156,-9.5892,0.0208,-0.0574,-0.0305,23.59
50895995430400,109686,0.0467,-0.0096,-9.5904,0.0208,-0.0586,-0.0305,23.56
50896006745700,109698,0.0467,-0.0132,-9.5904,0.0208,-0.0586,-0.0305,23.56
50896017992300,109709,0.0514,-0.0179,-9.5868,0.0208,-0.0574,-0.0305,23.57
50896029465200,109720,0.0562,-0.0084,-9.5845,0.0195,-0.0574,-0.0293,23.57
50896040666600,109732,0.0514,-0.0024,-9.5845,0.0208,-0.0574,-0.0293,23.53
50896051933500,109743,0.0538,-0.0036,-9.5856,0.0208,-0.0586,-0.0305,23.57
50896063229800,109754,0.0526,-0.0060,-9.5904,0.0208,-0.0586,-0.0305,23.57
50896074636300,109766,0.0431,-0.0096,-9.5880,0.0208,-0.0586,-0.0293,23.53
50896085863500,109777,0.0443,-0.0132,-9.5821,0.0208,-0.0586,-0.0305,23.53
50896097178600,109788,0.0491,-0.0120,-9.5797,0.0208,-0.0586,-0.0293,23.54
50896108520000,109800,0.0514,-0.0179,-9.5821,0.0195,-0.0599,-0.0305,23.54
50896119888100,109811,0.0514,-0.0167,-9.5868,0.0208,-0.0586,-0.0305,23.56
50896131353700,109822,0.0526,-0.0084,-9.5845,0.0195,-0.0574,-0.0305,23.55
50896142616200,109834,0.0514,-0.0060,-9.5856,0.0195,-0.0574,-0.0305,23.55
50896153925600,109845,0.0538,-0.0036,-9.5821,0.0195,-0.0586,-0.0305,23.55
50896165133400,109856,0.0491,-0.0060,-9.5821,0.0195,-0.0586,-0.0305,23.55
50896176473800,109868,0.0455,-0.0036,-9.5821,0.0208,-0.0574,-0.0305,23.56
50896187937600,109879,0.0479,-0.0036,-9.5845,0.0208,-0.0586,-0.0293,23.56
50896199463600,109890,0.0467,-0.0036,-9.5868,0.0208,-0.0586,-0.0293,23.59
50896210663200,109902,0.0502,-0.0108,-9.5856,0.0208,-0.0586,-0.0305,23.56
50896222062800,109913,0.0479,-0.0108,-9.5833,0.0208,-0.0586,-0.0305,23.56
50896233285600,109924,0.0479,-0.0120,-9.5856,0.0208,-0.0586,-0.0293,23.56
50896244474600,109936,0.0514,-0.0108,-9.5821,0.0220,-0.0574,-0.0293,23.56
50896255429800,109947,0.0491,-0.0120,-9.5785,0.0208,-0.0586,-0.0305,23.55
50896267409400,109958,0.0479,-0.0084,-9.5856,0.0208,-0.0586,-0.0305,23.55
50896278609700,109970,0.0538,-0.0048,-9.5868,0.0195,-0.0586,-0.0305,23.55
50896289949000,109981,0.0491,-0.0072,-9.5821,0.0195,-0.0586,-0.0293,23.55
50896301251900,109992,0.0455,-0.0036,-9.5845,0.0208,-0.0586,-0.0293,23.55
50896312609800,110004,0.0491,-0.0060,-9.5845,0.0208,-0.0586,-0.0305,23.57
50896323893900,110015,0.0491,-0.0120,-9.5809,0.0208,-0.0586,-0.0305,23.57
50896335177300,110026,0.0467,-0.0144,-9.5821,0.0208,-0.0586,-0.0293,23.55
50896346718400,110038,0.0431,-0.0120,-9.5833,0.0208,-0.0586,-0.0293,23.55
50896357909100,110049,0.0371,-0.0096,-9.5845,0.0208,-0.0586,-0.0305,23.58
50896369316300,110060,0.0419,-0.0108,-9.5809,0.0208,-0.0586,-0.0293,23.58
50896380615800,110072,0.0514,-0.0072,-9.5809,0.0208,-0.0586,-0.0305,23.55
50896391950400,110083,0.0502,-0.0060,-9.5785,0.0208,-0.0586,-0.0305,23.56
50896403265800,110095,0.0431,-0.0084,-9.5821,0.0208,-0.0586,-0.0305,23.56
50896414613100,110106,0.0467,-0.0096,-9.5845,0.0208,-0.0586,-0.0293,23.58
50896425977000,110117,0.0526,-0.0060,-9.5880,0.0208,-0.0586,-0.0305,23.58
50896437191700,110128,0.0514,-0.0012,-9.5868,0.0208,-0.0586,-0.0305,23.54
50896448553500,110140,0.0467,-0.0024,-9.5868,0.0208,-0.0586,-0.0305,23.54
50896459951700,110151,0.0419,-0.0108,-9.5773,0.0208,-0.0586,-0.0305,23.55
50896471256400,110162,0.0550,-0.0179,-9.5868,0.0208,-0.0586,-0.0305,23.53
50896482635600,110174,0.0538,-0.0167,-9.5845,0.0208,-0.0599,-0.0293,23.53
50896493962500,110185,0.0514,-0.0120,-9.5845,0.0208,-0.0586,-0.0305,23.58
50896505317200,110196,0.0514,-0.0132,-9.5845,0.0208,-0.0586,-0.0293,23.58
50896516590100,110208,0.0479,-0.0108,-9.5785,0.0208,-0.0586,-0.0293,23.57
50896527967000,110219,0.0455,-0.0072,-9.5880,0.0208,-0.0586,-0.0305,23.57
50896539477600,110231,0.0502,-0.0096,-9.5868,0.0208,-0.0586,-0.0293,23.55
50896550935200,110242,0.0491,-0.0120,-9.5845,0.0208,-0.0586,-0.0305,23.60
50896562149200,110253,0.0431,-0.0132,-9.5821,0.0208,-0.0586,-0.0305,23.60
50896573455000,110265,0.0491,-0.0108,-9.5833,0.0208,-0.0574,-0.0305,23.58
50896584704600,110276,0.0514,-0.0120,-9.5833,0.0208,-0.0574,-0.0305,23.58
50896595999900,110287,0.0502,-0.0120,-9.5880,0.0208,-0.0586,-0.0305,23.59
50896607361300,110299,0.0491,-0.0072,-9.5856,0.0208,-0.0586,-0.0305,23.59
50896618958400,110310,0.0443,-0.0024,-9.5773,0.0208,-0.0586,-0.0293,23.55
50896630141900,110321,0.0514,-0.0084,-9.5892,0.0208,-0.0586,-0.0293,23.55
50896641392600,110333,0.0550,-0.0060,-9.5797,0.0195,-0.0586,-0.0305,23.57
50896652697400,110344,0.0491,-0.0072,-9.5761,0.0195,-0.0586,-0.0305,23.55
50896663975700,110355,0.0514,-0.0048,-9.5845,0.0208,-0.0586,-0.0305,23.55
50896675360000,110367,0.0550,-0.0048,-9.5892,0.0208,-0.0586,-0.0305,23.58
50896686838200,110378,0.0550,-0.0108,-9.5856,0.0208,-0.0586,-0.0293,23.58
50896698133900,110389,0.0526,-0.0120,-9.5845,0.0208,-0.0574,-0.0305,23.59
50896709350800,110401,0.0502,-0.0120,-9.5880,0.0208,-0.0586,-0.0305,23.59
50896720637400,110412,0.0467,-0.0132,-9.5785,0.0208,-0.0586,-0.0293,23.56
50896731973500,110423,0.0455,-0.0108,-9.5940,0.0208,-0.0586,-0.0305,23.63
50896743300800,110435,0.0479,-0.0048,-9.5892,0.0208,-0.0586,-0.0293,23.63
50896754782300,110446,0.0419,-0.0036,-9.5689,0.0195,-0.0586,-0.0293,23.54
50896766047000,110457,0.0491,-0.0060,-9.5904,0.0208,-0.0586,-0.0305,23.54
50896777376600,110469,0.0586,-0.0108,-9.6060,0.0208,-0.0574,-0.0318,23.57
50896788772900,110480,0.0526,-0.0060,-9.5797,0.0195,-0.0586,-0.0305,23.57
50896800042500,110491,0.0479,-0.0108,-9.5964,0.0208,-0.0586,-0.0293,23.55
50896811683000,110503,0.0514,-0.0167,-9.5964,0.0208,-0.0599,-0.0293,23.59
50896822711800,110514,0.0479,-0.0179,-9.5713,0.0208,-0.0599,-0.0293,23.59
50896834007200,110525,0.0479,-0.0144,-9.5916,0.0208,-0.0574,-0.0293,23.59
50896845420000,110537,0.0502,-0.0144,-9.6060,0.0208,-0.0586,-0.0305,23.59
50896856934500,110548,0.0491,-0.0132,-9.5797,0.0208,-0.0586,-0.0305,23.58
50896867996000,110559,0.0502,-0.0120,-9.5809,0.0208,-0.0586,-0.0293,23.58
50896879255900,110571,0.0514,-0.0132,-9.6000,0.0208,-0.0574,-0.0293,23.63
50896890479600,110582,0.0419,-0.0084,-9.5761,0.0208,-0.0586,-0.0293,23.61
50896901833500,110593,0.0502,-0.0072,-9.5976,0.0208,-0.0586,-0.0293,23.61
50896913276700,110604,0.0574,-0.0048,-9.5868,0.0208,-0.0586,-0.0293,23.57
50896924635400,110616,0.0491,-0.0072,-9.5761,0.0220,-0.0599,-0.0293,23.57
50896935983100,110627,0.0431,-0.0072,-9.5833,0.0208,-0.0586,-0.0293,23.57
50896947278700,110638,0.0491,-0.0084,-9.5904,0.0208,-0.0574,-0.0293,23.57
50896958653000,110650,0.0514,-0.0120,-9.5845,0.0208,-0.0574,-0.0293,23.57
50896969947400,110661,0.0419,-0.0108,-9.5868,0.0208,-0.0586,-0.0293,23.57
50896981239800,110672,0.0502,-0.0084,-9.5845,0.0195,-0.0586,-0.0293,23.56
50896992718200,110684,0.0586,-0.0096,-9.5785,0.0208,-0.0586,-0.0293,23.54
50897003955600,110695,0.0562,-0.0096,-9.5856,0.0208,-0.0586,-0.0293,23.54
50897014827100,110706,0.0502,-0.0108,-9.5940,0.0208,-0.0586,-0.0293,23.55
50897026682900,110718,0.0419,-0.0084,-9.5952,0.0208,-0.0586,-0.0293,23.55
50897037908500,110729,0.0443,-0.0084,-9.5845,0.0208,-0.0586,-0.0305,23.59
50897049219400,110740,0.0479,-0.0096,-9.5845,0.0208,-0.0586,-0.0305,23.59
50897060563700,110752,0.0455,-0.0120,-9.5868,0.0208,-0.0586,-0.0305,23.58
50897071919000,110763,0.0443,-0.0096,-9.5845,0.0208,-0.0586,-0.0305,23.52
50897083169500,110774,0.0479,-0.0108,-9.5892,0.0208,-0.0586,-0.0293,23.52
50897094511600,110786,0.0491,-0.0144,-9.5833,0.0208,-0.0586,-0.0293,23.62
50897105822300,110797,0.0479,-0.0156,-9.5821,0.0208,-0.0586,-0.0293,23.62
50897117182900,110808,0.0491,-0.0120,-9.5856,0.0208,-0.0586,-0.0305,23.59
50897128521000,110820,0.0479,-0.0096,-9.5845,0.0208,-0.0574,-0.0305,23.59
50897139833900,110831,0.0443,-0.0072,-9.5821,0.0195,-0.0586,-0.0305,23.58
50897151119600,110842,0.0479,-0.0120,-9.5809,0.0195,-0.0586,-0.0305,23.55
50897162496800,110854,0.0526,-0.0108,-9.5892,0.0208,-0.0574,-0.0293,23.55
50897173784500,110865,0.0491,-0.0084,-9.5856,0.0208,-0.0586,-0.0293,23.56
50897185137100,110876,0.0455,-0.0144,-9.5856,0.0208,-0.0586,-0.0305,23.56
50897196431700,110888,0.0479,-0.0167,-9.5868,0.0208,-0.0586,-0.0293,23.59
50897207874500,110899,0.0455,-0.0108,-9.5833,0.0208,-0.0586,-0.0293,23.59
50897219166700,110910,0.0491,-0.0144,-9.5940,0.0208,-0.0574,-0.0293,23.57
50897230635700,110922,0.0562,-0.0096,-9.5797,0.0195,-0.0586,-0.0305,23.63
50897242178100,110933,0.0491,-0.0060,-9.5892,0.0208,-0.0586,-0.0305,23.63
50897253378400,110944,0.0407,-0.0048,-9.5916,0.0208,-0.0586,-0.0293,23.55
50897264640100,110956,0.0431,-0.0108,-9.5821,0.0208,-0.0586,-0.0293,23.55
50897275782400,110967,0.0467,-0.0144,-9.5880,0.0220,-0.0586,-0.0305,23.58
50897287083800,110978,0.0443,-0.0096,-9.5952,0.0208,-0.0586,-0.0293,23.58
50897298371000,110990,0.0455,-0.0084,-9.5868,0.0208,-0.0586,-0.0293,23.59
50897309651400,111001,0.0538,-0.0108,-9.5845,0.0208,-0.0574,-0.0293,23.59
50897320972500,111012,0.0550,-0.0120,-9.5940,0.0208,-0.0586,-0.0305,23.57
50897332164600,111023,0.0514,-0.0096,-9.5868,0.0208,-0.0586,-0.0293,23.61
50897343630400,111035,0.0455,-0.0096,-9.5845,0.0208,-0.0586,-0.0305,23.61
50897355046300,111046,0.0491,-0.0108,-9.5845,0.0208,-0.0574,-0.0293,23.59
50897366293100,111057,0.0502,-0.0108,-9.5821,0.0208,-0.0574,-0.0305,23.59
50897377567100,111069,0.0455,-0.0084,-9.5797,0.0208,-0.0586,-0.0305,23.61
50897388928700,111080,0.0407,-0.0072,-9.5856,0.0208,-0.0574,-0.0293,23.61
50897400265000,111091,0.0467,-0.0072,-9.5916,0.0208,-0.0599,-0.0293,23.54
50897411615200,111103,0.0526,-0.0096,-9.5892,0.0208,-0.0586,-0.0293,23.57
50897422922700,111114,0.0538,-0.0108,-9.5928,0.0208,-0.0586,-0.0305,23.57
50897434121300,111125,0.0502,-0.0108,-9.5880,0.0195,-0.0586,-0.0305,23.63
50897445648200,111137,0.0455,-0.0108,-9.5785,0.0208,-0.0574,-0.0293,23.63
50897456874400,111148,0.0431,-0.0096,-9.5797,0.0208,-0.0586,-0.0293,23.61
50897468190300,111159,0.0467,-0.0096,-9.5845,0.0208,-0.0586,-0.0305,23.61
50897479628300,111171,0.0550,-0.0120,-9.5821,0.0208,-0.0586,-0.0305,23.57
50897490921700,111182,0.0550,-0.0108,-9.5856,0.0195,-0.0586,-0.0293,23.57
50897502197300,111193,0.0467,-0.0024,-9.5916,0.0195,-0.0586,-0.0293,23.57
50897513557600,111205,0.0419,-0.0072,-9.5904,0.0208,-0.0574,-0.0293,23.54
50897524961600,111216,0.0491,-0.0156,-9.5904,0.0208,-0.0586,-0.0305,23.54
50897535866300,111227,0.0562,-0.0144,-9.5928,0.0195,-0.0586,-0.0293,23.61
50897547476200,111239,0.0479,-0.0108,-9.5856,0.0195,-0.0586,-0.0293,23.61
50897558978200,111250,0.0371,-0.0060,-9.5821,0.0208,-0.0586,-0.0293,23.60
50897570195300,111261,0.0586,-0.0072,-9.5856,0.0195,-0.0586,-0.0305,23.59
50897581768200,111273,0.0514,-0.0072,-9.5785,0.0208,-0.0586,-0.0305,23.59
50897592922100,111284,0.0419,-0.0108,-9.5868,0.0208,-0.0586,-0.0305,23.57
50897604213800,111295,0.0407,-0.0120,-9.5904,0.0208,-0.0586,-0.0305,23.57
50897615528400,111307,0.0419,-0.0108,-9.5809,0.0208,-0.0586,-0.0293,23.60
50897626913300,111318,0.0443,-0.0120,-9.5809,0.0208,-0.0586,-0.0293,23.60
50897638164000,111329,0.0467,-0.0132,-9.5880,0.0208,-0.0586,-0.0305,23.56
50897649500600,111341,0.0491,-0.0120,-9.5892,0.0208,-0.0586,-0.0305,23.56
50897660813800,111352,0.0491,-0.0072,-9.5868,0.0195,-0.0574,-0.0293,23.57
50897672144600,111363,0.0562,-0.0108,-9.5856,0.0208,-0.0574,-0.0293,23.60
50897683486700,111375,0.0538,-0.0120,-9.5880,0.0208,-0.0586,-0.0293,23.60
50897694844300,111386,0.0502,-0.0108,-9.5880,0.0195,-0.0586,-0.0293,23.59
50897706141700,111397,0.0431,-0.0084,-9.5821,0.0208,-0.0574,-0.0293,23.59
50897717482100,111409,0.0419,-0.0096,-9.5845,0.0208,-0.0586,-0.0293,23.59
50897728865500,111420,0.0455,-0.0108,-9.5880,0.0208,-0.0586,-0.0293,23.59
50897740167000,111431,0.0479,-0.0120,-9.5821,0.0208,-0.0574,-0.0305,23.61
50897751489900,111443,0.0467,-0.0132,-9.5809,0.0208,-0.0574,-0.0305,23.62
50897762889300,111454,0.0502,-0.0156,-9.5845,0.0195,-0.0586,-0.0293,23.62
50897774114500,111465,0.0491,-0.0144,-9.5868,0.0195,-0.0586,-0.0305,23.57
50897785378800,111477,0.0443,-0.0108,-9.5821,0.0195,-0.0574,-0.0293,23.57
50897796867100,111488,0.0502,-0.0132,-9.5809,0.0195,-0.0574,-0.0293,23.59
50897808247800,111499,0.0502,-0.0084,-9.5868,0.0208,-0.0586,-0.0293,23.59
50897819582000,111511,0.0467,-0.0144,-9.5892,0.0208,-0.0586,-0.0293,23.58
50897830846800,111522,0.0502,-0.0096,-9.5856,0.0208,-0.0586,-0.0305,23.57
50897842233600,111533,0.0479,-0.0120,-9.5845,0.0208,-0.0586,-0.0293,23.57
50897853535900,111545,0.0502,-0.0120,-9.5856,0.0208,-0.0586,-0.0305,23.61
50897864745200,111556,0.0526,-0.0108,-9.5880,0.0208,-0.0586,-0.0293,23.61
50897876178000,111567,0.0550,-0.0108,-9.5845,0.0208,-0.0586,-0.0293,23.62
50897887539500,111579,0.0514,-0.0108,-9.5880,0.0208,-0.0586,-0.0293,23.62
50897898628800,111590,0.0467,-0.0108,-9.5892,0.0208,-0.0586,-0.0293,23.58
50897910007000,111601,0.0455,-0.0108,-9.5880,0.0208,-0.0586,-0.0305,23.57
50897921355500,111613,0.0491,-0.0084,-9.5868,0.0208,-0.0586,-0.0305,23.57
50897932783700,111624,0.0526,-0.0096,-9.5845,0.0195,-0.0586,-0.0305,23.57
50897944322600,111635,0.0502,-0.0132,-9.5868,0.0195,-0.0586,-0.0305,23.57
50897955645400,111647,0.0502,-0.0156,-9.5904,0.0208,-0.0586,-0.0293,23.61
50897967028500,111658,0.0502,-0.0096,-9.5880,0.0195,-0.0586,-0.0305,23.61
50897978342300,111669,0.0491,-0.0036,-9.5821,0.0208,-0.0586,-0.0305,23.63
50897989720100,111681,0.0538,-0.0048,-9.5904,0.0208,-0.0574,-0.0293,23.63
50898001025600,111692,0.0479,-0.0072,-9.5868,0.0208,-0.0586,-0.0293,23.58
50898012259800,111703,0.0538,-0.0084,-9.5868,0.0208,-0.0586,-0.0293,23.60
50898023440800,111715,0.0574,-0.0120,-9.5940,0.0208,-0.0586,-0.0293,23.60
50898034949600,111726,0.0574,-0.0132,-9.5892,0.0195,-0.0586,-0.0305,23.59
50898045736300,111737,0.0550,-0.0072,-9.5809,0.0208,-0.0586,-0.0305,23.59
50898057499500,111749,0.0502,-0.0036,-9.5856,0.0208,-0.0586,-0.0305,23.59
50898068816400,111760,0.0491,-0.0072,-9.5976,0.0208,-0.0574,-0.0305,23.59
50898080135900,111771,0.0514,-0.0048,-9.5845,0.0208,-0.0586,-0.0305,23.60
50898091459700,111783,0.0538,-0.0072,-9.5868,0.0208,-0.0586,-0.0293,23.59
50898102733200,111794,0.0502,-0.0108,-9.5856,0.0208,-0.0586,-0.0293,23.59
50898114130700,111805,0.0443,-0.0096,-9.5737,0.0195,-0.0586,-0.0293,23.59
50898125408300,111817,0.0431,-0.0096,-9.5809,0.0208,-0.0574,-0.0305,23.59
50898136876500,111828,0.0479,-0.0096,-9.5916,0.0208,-0.0586,-0.0293,23.59
50898148178500,111839,0.0526,-0.0084,-9.5856,0.0208,-0.0586,-0.0293,23.59
50898159570100,111851,0.0467,-0.0132,-9.5856,0.0208,-0.0586,-0.0293,23.61
50898170839800,111862,0.0467,-0.0060,-9.5845,0.0208,-0.0586,-0.0293,23.61
50898182138000,111873,0.0502,-0.0084,-9.5856,0.0195,-0.0586,-0.0305,23.61
50898193522500,111885,0.0526,-0.0096,-9.5892,0.0208,-0.0574,-0.0293,23.57
50898204840500,111896,0.0502,-0.0132,-9.5892,0.0208,-0.0574,-0.0293,23.57
50898216227900,111907,0.0491,-0.0120,-9.5797,0.0208,-0.0574,-0.0293,23.60
50898227573900,111919,0.0467,-0.0060,-9.5856,0.0208,-0.0574,-0.0293,23.60
50898238931500,111930,0.0479,-0.0060,-9.5928,0.0208,-0.0574,-0.0293,23.64
50898250207000,111941,0.0562,-0.0096,-9.5821,0.0195,-0.0574,-0.0305,23.62
50898261495500,111953,0.0479,-0.0108,-9.5880,0.0195,-0.0574,-0.0305,23.62
50898272853500,111964,0.0443,-0.0108,-9.5833,0.0195,-0.0574,-0.0293,23.63
50898284152400,111975,0.0455,-0.0156,-9.5833,0.0195,-0.0574,-0.0293,23.63
50898295415600,111987,0.0514,-0.0132,-9.5892,0.0208,-0.0574,-0.0293,23.59
50898306627300,111998,0.0538,-0.0120,-9.5868,0.0208,-0.0586,-0.0293,23.59
50898317930000,112009,0.0491,-0.0132,-9.5880,0.0208,-0.0586,-0.0293,23.57
50898329287200,112021,0.0479,-0.0096,-9.5821,0.0208,-0.0574,-0.0293,23.57
50898340543500,112032,0.0502,-0.0132,-9.5904,0.0208,-0.0586,-0.0305,23.60
50898351999400,112043,0.0526,-0.0096,-9.5892,0.0208,-0.0574,-0.0293,23.58
50898363380900,112054,0.0526,-0.0096,-9.5821,0.0195,-0.0586,-0.0293,23.58
50898374619000,112066,0.0514,-0.0108,-9.5868,0.0208,-0.0586,-0.0305,23.63
50898385766400,112077,0.0491,-0.0120,-9.5821,0.0195,-0.0586,-0.0293,23.63
50898397162700,112088,0.0479,-0.0120,-9.5749,0.0195,-0.0574,-0.0293,23.58
50898408495400,112100,0.0479,-0.0084,-9.5833,0.0208,-0.0586,-0.0293,23.58
50898419845800,112111,0.0479,-0.0096,-9.5833,0.0208,-0.0574,-0.0293,23.64
50898431136800,112122,0.0467,-0.0132,-9.5845,0.0195,-0.0574,-0.0293,23.58
50898442577400,112134,0.0479,-0.0120,-9.5892,0.0195,-0.0586,-0.0293,23.58
50898453972100,112145,0.0502,-0.0096,-9.5904,0.0195,-0.0574,-0.0293,23.61
50898465049000,112156,0.0526,-0.0108,-9.5868,0.0208,-0.0574,-0.0293,23.61
50898476364300,112168,0.0526,-0.0132,-9.5868,0.0208,-0.0574,-0.0293,23.61
50898487700300,112179,0.0491,-0.0144,-9.5868,0.0195,-0.0586,-0.0305,23.61
50898499092900,112190,0.0455,-0.0108,-9.5845,0.0208,-0.0586,-0.0293,23.60
50898510358900,112202,0.0502,-0.0108,-9.5880,0.0208,-0.0574,-0.0293,23.62
50898521683300,112213,0.0514,-0.0096,-9.5880,0.0208,-0.0586,-0.0293,23.62
50898533037600,112224,0.0502,-0.0060,-9.5868,0.0195,-0.0586,-0.0293,23.59
50898544338200,112236,0.0431,-0.0036,-9.5845,0.0208,-0.0586,-0.0293,23.59
50898555646500,112247,0.0419,-0.0072,-9.5880,0.0195,-0.0574,-0.0293,23.63
50898567016800,112258,0.0491,-0.0084,-9.5880,0.0195,-0.0574,-0.0293,23.63
50898578391900,112270,0.0526,-0.0132,-9.5821,0.0208,-0.0586,-0.0305,23.59
50898589744400,112281,0.0443,-0.0084,-9.5868,0.0208,-0.0574,-0.0293,23.66
50898601047100,112292,0.0467,-0.0084,-9.5856,0.0208,-0.0586,-0.0293,23.66
50898612305400,112304,0.0574,-0.0108,-9.5809,0.0208,-0.0574,-0.0293,23.66
50898623791200,112315,0.0586,-0.0096,-9.5833,0.0195,-0.0586,-0.0293,23.66
50898635193700,112326,0.0479,-0.0060,-9.5845,0.0195,-0.0586,-0.0293,23.64
50898646538800,112338,0.0407,-0.0036,-9.5856,0.0208,-0.0586,-0.0293,23.64
50898657886900,112349,0.0491,-0.0060,-9.5880,0.0208,-0.0586,-0.0293,23.62
50898669142400,112360,0.0431,-0.0060,-9.5821,0.0195,-0.0586,-0.0293,23.62
50898680441800,112372,0.0383,-0.0096,-9.5880,0.0208,-0.0574,-0.0293,23.60
50898691802800,112383,0.0455,-0.0132,-9.5952,0.0208,-0.0586,-0.0293,23.64
50898703045700,112394,0.0574,-0.0120,-9.5904,0.0195,-0.0586,-0.0293,23.64
50898714418300,112406,0.0550,-0.0096,-9.5880,0.0208,-0.0586,-0.0293,23.63
50898725645600,112417,0.0491,-0.0072,-9.5916,0.0208,-0.0586,-0.0305,23.63
50898736944600,112428,0.0491,-0.0108,-9.5940,0.0208,-0.0574,-0.0305,23.61
50898748226700,112440,0.0502,-0.0132,-9.5868,0.0195,-0.0586,-0.0305,23.61
50898759821200,112451,0.0467,-0.0096,-9.5904,0.0208,-0.0574,-0.0293,23.61
50898771186000,112462,0.0443,-0.0120,-9.5880,0.0208,-0.0586,-0.0293,23.61
50898782420100,112474,0.0467,-0.0108,-9.5809,0.0208,-0.0574,-0.0293,23.61
50898793519100,112485,0.0514,-0.0060,-9.5856,0.0208,-0.0574,-0.0305,23.63
50898804887300,112496,0.0502,-0.0072,-9.5856,0.0208,-0.0586,-0.0305,23.63
50898816142200,112507,0.0455,-0.0108,-9.5761,0.0195,-0.0586,-0.0293,23.61
50898827598800,112519,0.0431,-0.0108,-9.5809,0.0208,-0.0574,-0.0293,23.61
50898838852300,112530,0.0383,-0.0120,-9.5904,0.0195,-0.0574,-0.0293,23.64
50898850110500,112541,0.0443,-0.0072,-9.5833,0.0195,-0.0574,-0.0293,23.63
50898861434800,112553,0.0491,-0.0072,-9.5833,0.0195,-0.0574,-0.0305,23.63
50898872967200,112564,0.0538,-0.0144,-9.5904,0.0208,-0.0586,-0.0305,23.59
50898884062500,112575,0.0514,-0.0120,-9.5856,0.0195,-0.0574,-0.0293,23.59
50898895402200,112587,0.0371,-0.0072,-9.5809,0.0208,-0.0574,-0.0293,23.61
50898906658500,112598,0.0407,-0.0072,-9.5880,0.0208,-0.0586,-0.0293,23.61
50898918054000,112609,0.0502,-0.0072,-9.5916,0.0208,-0.0586,-0.0293,23.61
50898929354900,112621,0.0514,-0.0156,-9.5821,0.0195,-0.0586,-0.0293,23.59
50898940719700,112632,0.0419,-0.0144,-9.5904,0.0208,-0.0586,-0.0305,23.59
50898951943400,112643,0.0383,-0.0156,-9.5916,0.0208,-0.0586,-0.0293,23.61
50898963265400,112655,0.0443,-0.0156,-9.5833,0.0195,-0.0586,-0.0293,23.61
50898974828500,112666,0.0550,-0.0120,-9.5880,0.0208,-0.0586,-0.0293,23.60
50898985986500,112677,0.0550,-0.0084,-9.5904,0.0208,-0.0586,-0.0305,23.60
50898997429300,112688,0.0479,-0.0120,-9.5868,0.0208,-0.0586,-0.0305,23.61
50899008878500,112700,0.0479,-0.0108,-9.5856,0.0195,-0.0586,-0.0293,23.61
50899020166400,112711,0.0514,-0.0120,-9.5833,0.0208,-0.0599,-0.0293,23.64
50899031485800,112723,0.0467,-0.0132,-9.5773,0.0208,-0.0586,-0.0293,23.63
50899042820500,112734,0.0455,-0.0096,-9.5809,0.0208,-0.0586,-0.0293,23.63
50899054164200,112745,0.0467,-0.0084,-9.5856,0.0208,-0.0586,-0.0293,23.64
50899065757700,112757,0.0479,-0.0096,-9.5880,0.0208,-0.0586,-0.0293,23.64
50899076474800,112768,0.0502,-0.0072,-9.5833,0.0195,-0.0586,-0.0293,23.58
50899087686000,112779,0.0467,-0.0096,-9.5868,0.0208,-0.0586,-0.0293,23.58
50899099582200,112791,0.0467,-0.0072,-9.5845,0.0208,-0.0586,-0.0293,23.60
50899110838100,112802,0.0443,-0.0084,-9.5880,0.0208,-0.0586,-0.0293,23.60
50899122206700,112813,0.0467,-0.0144,-9.5892,0.0208,-0.0586,-0.0293,23.60
50899133490400,112825,0.0467,-0.0144,-9.5880,0.0208,-0.0586,-0.0305,23.60
50899144807200,112836,0.0467,-0.0132,-9.5856,0.0208,-0.0586,-0.0293,23.60
50899156345100,112847,0.0479,-0.0132,-9.5821,0.0208,-0.0586,-0.0293,23.65
50899167424700,112859,0.0467,-0.0120,-9.5821,0.0208,-0.0586,-0.0293,23.65
50899178773000,112870,0.0455,-0.0120,-9.5785,0.0208,-0.0586,-0.0293,23.60
50899190157700,112881,0.0491,-0.0096,-9.5904,0.0195,-0.0586,-0.0305,23.61
50899201230600,112893,0.0526,-0.0096,-9.5880,0.0208,-0.0586,-0.0293,23.61
50899212185400,112904,0.0502,-0.0108,-9.5868,0.0208,-0.0586,-0.0293,23.61
50899224140100,112915,0.0455,-0.0132,-9.5892,0.0195,-0.0586,-0.0293,23.61
50899235392400,112926,0.0491,-0.0156,-9.5928,0.0195,-0.0586,-0.0293,23.64
50899246736800,112938,0.0526,-0.0156,-9.5892,0.0208,-0.0586,-0.0305,23.64
50899257589500,112949,0.0491,-0.0179,-9.5821,0.0208,-0.0586,-0.0293,23.63
50899269306800,112960,0.0491,-0.0144,-9.5868,0.0208,-0.0586,-0.0293,23.62
50899280676300,112972,0.0467,-0.0096,-9.5833,0.0195,-0.0586,-0.0293,23.62
50899291988900,112983,0.0479,-0.0096,-9.5880,0.0195,-0.0586,-0.0305,23.62
50899303346700,112994,0.0491,-0.0108,-9.5892,0.0208,-0.0586,-0.0305,23.62
50899314848600,113006,0.0467,-0.0084,-9.5821,0.0208,-0.0586,-0.0293,23.61
50899326142700,113017,0.0467,-0.0060,-9.5821,0.0208,-0.0586,-0.0305,23.61
50899337386100,113029,0.0491,-0.0072,-9.5833,0.0195,-0.0586,-0.0305,23.61
50899348624800,113040,0.0491,-0.0144,-9.5845,0.0195,-0.0586,-0.0305,23.61
50899360114300,113051,0.0467,-0.0156,-9.5833,0.0208,-0.0574,-0.0293,23.63
50899371336700,113062,0.0383,-0.0120,-9.5809,0.0195,-0.0574,-0.0293,23.61
50899382642700,113074,0.0419,-0.0072,-9.5821,0.0208,-0.0586,-0.0293,23.61
50899393975100,113085,0.0455,-0.0036,-9.5892,0.0208,-0.0586,-0.0305,23.65
50899405217100,113096,0.0479,-0.0084,-9.5880,0.0208,-0.0574,-0.0305,23.65
50899416587000,113108,0.0479,-0.0084,-9.5809,0.0208,-0.0586,-0.0293,23.67
50899427919000,113119,0.0491,-0.0084,-9.5809,0.0195,-0.0574,-0.0305,23.67
50899439135200,113130,0.0491,-0.0096,-9.5916,0.0195,-0.0586,-0.0293,23.61
50899450523800,113142,0.0514,-0.0120,-9.5845,0.0195,-0.0586,-0.0293,23.62
50899461853900,113153,0.0550,-0.0108,-9.5845,0.0208,-0.0586,-0.0305,23.62
50899473253900,113164,0.0502,-0.0096,-9.5892,0.0208,-0.0574,-0.0293,23.64
50899484665600,113176,0.0479,-0.0084,-9.5856,0.0208,-0.0586,-0.0293,23.64
50899495928700,113187,0.0514,-0.0108,-9.5785,0.0208,-0.0586,-0.0305,23.65
50899507311300,113198,0.0502,-0.0132,-9.5821,0.0208,-0.0586,-0.0293,23.65
50899518544000,113210,0.0455,-0.0120,-9.5868,0.0208,-0.0586,-0.0305,23.61
50899530002400,113221,0.0479,-0.0084,-9.5809,0.0195,-0.0586,-0.0293,23.60
50899541376200,113232,0.0491,-0.0108,-9.5833,0.0195,-0.0574,-0.0318,23.60
50899552554700,113244,0.0502,-0.0108,-9.5904,0.0208,-0.0574,-0.0305,23.63
50899564019600,113255,0.0550,-0.0108,-9.5821,0.0208,-0.0586,-0.0305,23.63
50899575309000,113266,0.0514,-0.0120,-9.5737,0.0208,-0.0574,-0.0293,23.64
50899586504700,113278,0.0514,-0.0120,-9.5785,0.0208,-0.0574,-0.0305,23.64
50899598007400,113289,0.0491,-0.0120,-9.5845,0.0208,-0.0574,-0.0305,23.62
50899609258600,113300,0.0431,-0.0084,-9.5892,0.0208,-0.0586,-0.0293,23.65
50899620553300,113312,0.0514,-0.0060,-9.5892,0.0208,-0.0586,-0.0293,23.65
50899631943700,113323,0.0514,-0.0048,-9.5833,0.0195,-0.0586,-0.0293,23.64
50899643293200,113334,0.0455,-0.0132,-9.5892,0.0208,-0.0574,-0.0305,23.64
50899654465000,113346,0.0491,-0.0144,-9.5904,0.0208,-0.0574,-0.0293,23.60
50899665735800,113357,0.0526,-0.0108,-9.5773,0.0208,-0.0586,-0.0293,23.60
50899677097700,113368,0.0479,-0.0084,-9.5785,0.0208,-0.0586,-0.0305,23.60
50899688403900,113380,0.0467,-0.0084,-9.5916,0.0208,-0.0574,-0.0305,23.60
50899699728800,113391,0.0455,-0.0132,-9.5785,0.0208,-0.0586,-0.0293,23.61
50899711083400,113402,0.0443,-0.0108,-9.5833,0.0208,-0.0574,-0.0305,23.67
50899722351500,113414,0.0467,-0.0084,-9.5940,0.0208,-0.0586,-0.0305,23.67
50899733704600,113425,0.0479,-0.0096,-9.5868,0.0208,-0.0586,-0.0293,23.66
50899745103300,113436,0.0491,-0.0096,-9.5856,0.0208,-0.0574,-0.0293,23.66
50899756447800,113448,0.0514,-0.0096,-9.5880,0.0208,-0.0586,-0.0293,23.64
50899767772200,113459,0.0455,-0.0084,-9.5785,0.0208,-0.0586,-0.0293,23.64
50899779085800,113470,0.0467,-0.0096,-9.5880,0.0208,-0.0574,-0.0293,23.59
50899790493200,113482,0.0526,-0.0096,-9.5868,0.0208,-0.0586,-0.0305,23.63
50899801768600,113493,0.0502,-0.0108,-9.5880,0.0208,-0.0574,-0.0305,23.63
50899813059200,113504,0.0419,-0.0156,-9.5928,0.0208,-0.0574,-0.0305,23.61
50899824436400,113516,0.0467,-0.0144,-9.5940,0.0208,-0.0574,-0.0281,23.61
50899835692400,113527,0.0550,-0.0096,-9.5833,0.0208,-0.0586,-0.0293,23.64
50899846589000,113538,0.0550,-0.0120,-9.5761,0.0208,-0.0586,-0.0293,23.64
50899858276900,113550,0.0514,-0.0120,-9.5845,0.0208,-0.0574,-0.0305,23.62
50899869606600,113561,0.0479,-0.0072,-9.5880,0.0208,-0.0586,-0.0305,23.62
50899880922800,113572,0.0491,-0.0108,-9.5952,0.0208,-0.0586,-0.0293,23.62
50899892342300,113583,0.0502,-0.0120,-9.5868,0.0195,-0.0586,-0.0293,23.61
50899903627500,113595,0.0479,-0.0132,-9.5904,0.0208,-0.0586,-0.0293,23.61
50899915260500,113606,0.0479,-0.0132,-9.5928,0.0208,-0.0586,-0.0293,23.64
50899926334600,113617,0.0514,-0.0060,-9.5892,0.0208,-0.0586,-0.0293,23.64
50899937627800,113629,0.0443,-0.0048,-9.5916,0.0208,-0.0586,-0.0281,23.63
50899949016500,113640,0.0455,-0.0072,-9.5868,0.0208,-0.0586,-0.0293,23.64
50899960199100,113651,0.0491,-0.0132,-9.5868,0.0208,-0.0574,-0.0293,23.64
50899971471300,113663,0.0455,-0.0072,-9.5845,0.0208,-0.0574,-0.0305,23.67
50899982820800,113674,0.0491,-0.0108,-9.5868,0.0195,-0.0574,-0.0305,23.67
50899994119000,113685,0.0538,-0.0144,-9.5821,0.0208,-0.0574,-0.0305,23.63
50900005483300,113697,0.0538,-0.0120,-9.5785,0.0208,-0.0574,-0.0293,23.63
50900016801700,113708,0.0562,-0.0060,-9.5892,0.0208,-0.0574,-0.0293,23.64
50900028332500,113719,0.0514,-0.0012,-9.5940,0.0208,-0.0586,-0.0293,23.64
50900039718700,113731,0.0514,-0.0072,-9.5868,0.0208,-0.0586,-0.0293,23.68
50900050899100,113742,0.0491,-0.0096,-9.5952,0.0208,-0.0586,-0.0293,23.67
50900062248700,113753,0.0467,-0.0096,-9.5856,0.0208,-0.0586,-0.0305,23.67
50900073658200,113765,0.0479,-0.0096,-9.5845,0.0195,-0.0574,-0.0305,23.60
50900084895500,113776,0.0479,-0.0072,-9.5868,0.0195,-0.0586,-0.0293,23.60
50900096249900,113787,0.0526,-0.0108,-9.5868,0.0208,-0.0586,-0.0293,23.66
50900107550200,113799,0.0562,-0.0120,-9.5880,0.0208,-0.0586,-0.0293,23.66
50900118615200,113810,0.0479,-0.0072,-9.5868,0.0208,-0.0586,-0.0293,23.61
50900130110000,113821,0.0514,-0.0084,-9.5904,0.0208,-0.0586,-0.0293,23.67
50900141838800,113833,0.0550,-0.0144,-9.5868,0.0208,-0.0586,-0.0293,23.67
50900153004700,113844,0.0514,-0.0144,-9.5868,0.0208,-0.0574,-0.0293,23.63
50900164358900,113855,0.0455,-0.0120,-9.5904,0.0208,-0.0586,-0.0293,23.63
50900175647600,113867,0.0443,-0.0156,-9.5880,0.0195,-0.0586,-0.0305,23.65
50900186736400,113878,0.0443,-0.0156,-9.5845,0.0208,-0.0586,-0.0293,23.65
50900198341700,113889,0.0491,-0.0144,-9.5868,0.0208,-0.0574,-0.0293,23.65
50900209494600,113901,0.0467,0.0000,-9.5845,0.0208,-0.0574,-0.0305,23.64
50900220825600,113912,0.0479,-0.0060,-9.5833,0.0208,-0.0574,-0.0293,23.64
50900232119000,113923,0.0514,-0.0096,-9.5964,0.0208,-0.0574,-0.0293,23.65
50900243446800,113935,0.0562,-0.0036,-9.5964,0.0208,-0.0586,-0.0305,23.65
50900254829000,113946,0.0479,-0.0060,-9.5833,0.0208,-0.0586,-0.0293,23.62
50900266099700,113957,0.0407,-0.0084,-9.5892,0.0220,-0.0586,-0.0305,23.62
50900277440500,113969,0.0431,-0.0060,-9.5940,0.0208,-0.0574,-0.0305,23.67
50900288705100,113980,0.0443,-0.0191,-9.5821,0.0195,-0.0574,-0.0305,23.64
50900300023000,113991,0.0502,-0.0179,-9.5940,0.0208,-0.0574,-0.0293,23.64
50900311316500,114002,0.0514,-0.0120,-9.5821,0.0195,-0.0586,-0.0293,23.64
50900322702300,114014,0.0431,-0.0096,-9.5749,0.0208,-0.0586,-0.0293,23.64
50900334039200,114025,0.0407,-0.0072,-9.5868,0.0208,-0.0586,-0.0293,23.64
50900345465700,114036,0.0491,-0.0108,-9.5952,0.0195,-0.0574,-0.0293,23.64
50900356802100,114048,0.0514,-0.0072,-9.5904,0.0195,-0.0574,-0.0293,23.63
50900367972000,114059,0.0502,-0.0060,-9.5833,0.0195,-0.0574,-0.0293,23.63
50900379812800,114070,0.0514,-0.0024,-9.5797,0.0195,-0.0586,-0.0293,23.67
50900390705500,114082,0.0514,-0.0096,-9.5809,0.0208,-0.0586,-0.0293,23.64
50900401923700,114093,0.0526,-0.0144,-9.5928,0.0208,-0.0586,-0.0293,23.64
50900413365400,114104,0.0538,-0.0120,-9.5940,0.0208,-0.0586,-0.0293,23.64
50900424632900,114116,0.0479,-0.0096,-9.5856,0.0208,-0.0586,-0.0293,23.64
50900435915900,114127,0.0467,-0.0108,-9.5880,0.0208,-0.0574,-0.0293,23.63
50900447210400,114138,0.0526,-0.0120,-9.5928,0.0208,-0.0586,-0.0305,23.63
50900458558400,114150,0.0431,-0.0167,-9.5833,0.0195,-0.0562,-0.0293,23.66
50900469904800,114161,0.0407,-0.0144,-9.5809,0.0195,-0.0574,-0.0293,23.66
50900481229000,114172,0.0443,-0.0096,-9.5880,0.0195,-0.0574,-0.0305,23.66
50900492557900,114184,0.0502,-0.0048,-9.5845,0.0195,-0.0586,-0.0281,23.59
50900503781900,114195,0.0479,-0.0060,-9.5856,0.0208,-0.0586,-0.0281,23.59
50900515189200,114206,0.0502,-0.0096,-9.5928,0.0208,-0.0586,-0.0293,23.65
50900526522800,114218,0.0502,-0.0096,-9.5904,0.0208,-0.0586,-0.0293,23.65
50900537799600,114229,0.0419,-0.0096,-9.5856,0.0208,-0.0586,-0.0293,23.70
50900549174400,114240,0.0514,-0.0156,-9.5892,0.0208,-0.0586,-0.0305,23.63
50900560439500,114252,0.0479,-0.0144,-9.5868,0.0195,-0.0574,-0.0293,23.63
50900571736400,114263,0.0455,-0.0108,-9.5773,0.0208,-0.0586,-0.0293,23.66
50900583134700,114274,0.0491,-0.0096,-9.5833,0.0208,-0.0574,-0.0293,23.66
50900594725000,114286,0.0502,-0.0072,-9.5880,0.0208,-0.0574,-0.0293,23.66
50900605867400,114297,0.0526,-0.0036,-9.5856,0.0208,-0.0586,-0.0293,23.66
50900617179500,114308,0.0514,-0.0048,-9.5821,0.0208,-0.0586,-0.0305,23.64
50900628483600,114320,0.0479,-0.0120,-9.5833,0.0195,-0.0586,-0.0305,23.65
50900639991900,114331,0.0479,-0.0144,-9.5773,0.0208,-0.0586,-0.0293,23.65
50900651269500,114342,0.0419,-0.0132,-9.5797,0.0208,-0.0586,-0.0293,23.65
50900662508100,114354,0.0443,-0.0108,-9.5880,0.0195,-0.0586,-0.0293,23.65
50900673823600,114365,0.0491,-0.0167,-9.5940,0.0208,-0.0586,-0.0305,23.64
50900685566900,114376,0.0491,-0.0156,-9.5892,0.0208,-0.0586,-0.0293,23.64
50900696424800,114388,0.0479,-0.0108,-9.5868,0.0208,-0.0586,-0.0293,23.65
50900707736700,114399,0.0479,-0.0132,-9.5856,0.0208,-0.0586,-0.0293,23.65
50900719093600,114410,0.0562,-0.0072,-9.5797,0.0208,-0.0586,-0.0305,23.68
50900730418700,114422,0.0514,-0.0096,-9.5821,0.0195,-0.0574,-0.0293,23.67
50900741712800,114433,0.0443,-0.0108,-9.5880,0.0208,-0.0586,-0.0293,23.67
50900753158500,114444,0.0431,-0.0048,-9.5833,0.0208,-0.0586,-0.0281,23.65
50900764491100,114456,0.0467,-0.0072,-9.5821,0.0208,-0.0586,-0.0293,23.65
50900775805100,114467,0.0526,-0.0108,-9.5892,0.0208,-0.0574,-0.0305,23.68
50900787221500,114478,0.0550,-0.0156,-9.5845,0.0208,-0.0586,-0.0293,23.68
50900798545000,114490,0.0467,-0.0144,-9.5856,0.0195,-0.0586,-0.0293,23.64
50900809881300,114501,0.0443,-0.0096,-9.5892,0.0208,-0.0586,-0.0293,23.65
50900821180100,114512,0.0467,-0.0072,-9.5952,0.0195,-0.0586,-0.0293,23.65
50900832454400,114524,0.0514,-0.0084,-9.5892,0.0208,-0.0574,-0.0305,23.65
50900843971700,114535,0.0526,-0.0096,-9.5809,0.0208,-0.0574,-0.0305,23.65
50900855219500,114546,0.0550,-0.0084,-9.5821,0.0208,-0.0586,-0.0305,23.68
50900866607000,114558,0.0491,-0.0096,-9.5845,0.0208,-0.0586,-0.0293,23.68
50900877935900,114569,0.0526,-0.0120,-9.5845,0.0208,-0.0586,-0.0281,23.64
50900889221400,114580,0.0479,-0.0120,-9.5892,0.0195,-0.0586,-0.0293,23.64
50900900480800,114592,0.0407,-0.0048,-9.5868,0.0208,-0.0586,-0.0293,23.64
50900911767400,114603,0.0419,0.0000,-9.5833,0.0208,-0.0586,-0.0293,23.67
50900923119200,114614,0.0491,-0.0036,-9.5845,0.0208,-0.0586,-0.0293,23.67
50900934417300,114626,0.0467,-0.0120,-9.5845,0.0208,-0.0586,-0.0293,23.63
50900945741700,114637,0.0491,-0.0191,-9.5821,0.0195,-0.0586,-0.0293,23.63
50900957068500,114648,0.0550,-0.0167,-9.5892,0.0208,-0.0586,-0.0293,23.63
50900968341500,114660,0.0431,-0.0120,-9.5856,0.0208,-0.0586,-0.0293,23.65
50900979791000,114671,0.0383,-0.0144,-9.5892,0.0208,-0.0586,-0.0293,23.65
50900991177500,114682,0.0443,-0.0167,-9.5916,0.0208,-0.0574,-0.0293,23.64
50901002441600,114694,0.0479,-0.0167,-9.5856,0.0208,-0.0586,-0.0293,23.64
50901013777100,114705,0.0455,-0.0108,-9.5809,0.0208,-0.0586,-0.0305,23.64
50901025057500,114716,0.0491,-0.0084,-9.5809,0.0208,-0.0586,-0.0293,23.64
50901036395500,114728,0.0479,-0.0120,-9.5833,0.0208,-0.0586,-0.0293,23.66
50901047707300,114739,0.0467,-0.0156,-9.5821,0.0208,-0.0574,-0.0293,23.66
50901065783800,114750,0.0502,-0.0120,-9.5904,0.0208,-0.0574,-0.0305,23.65
50901077224400,114768,0.0491,-0.0132,-9.5880,0.0208,-0.0574,-0.0305,23.64
50901088489400,114780,0.0514,-0.0084,-9.5892,0.0208,-0.0574,-0.0305,23.68
50901099885800,114791,0.0538,-0.0096,-9.5821,0.0195,-0.0574,-0.0305,23.68
50901111169100,114802,0.0526,-0.0144,-9.5809,0.0195,-0.0574,-0.0293,23.68
50901122492900,114814,0.0491,-0.0120,-9.5904,0.0208,-0.0586,-0.0293,23.68
50901133828500,114825,0.0431,-0.0096,-9.5916,0.0208,-0.0574,-0.0293,23.63
50901145420000,114836,0.0407,-0.0048,-9.5821,0.0208,-0.0586,-0.0305,23.63
50901156630900,114848,0.0455,-0.0036,-9.5833,0.0208,-0.0586,-0.0293,23.64
50901167657300,114859,0.0491,-0.0084,-9.5845,0.0208,-0.0586,-0.0305,23.64
50901179292700,114870,0.0514,-0.0108,-9.5833,0.0208,-0.0574,-0.0293,23.66
50901190520200,114881,0.0479,-0.0120,-9.5856,0.0208,-0.0586,-0.0293,23.64
50901201850400,114893,0.0502,-0.0120,-9.5880,0.0208,-0.0586,-0.0293,23.64
50901213117100,114904,0.0538,-0.0096,-9.5868,0.0208,-0.0586,-0.0305,23.65
50901224103100,114915,0.0491,-0.0072,-9.5880,0.0208,-0.0586,-0.0293,23.65
50901235904800,114927,0.0455,-0.0084,-9.5856,0.0208,-0.0586,-0.0293,23.63
50901247248600,114938,0.0502,-0.0108,-9.5856,0.0220,-0.0586,-0.0305,23.63
50901258530000,114950,0.0479,-0.0120,-9.5928,0.0208,-0.0574,-0.0293,23.64
50901269799000,114961,0.0514,-0.0072,-9.5833,0.0195,-0.0574,-0.0305,23.66
50901281169800,114972,0.0491,-0.0084,-9.5821,0.0208,-0.0586,-0.0305,23.66
50901292470800,114984,0.0502,-0.0096,-9.5856,0.0208,-0.0599,-0.0305,23.71
50901303702900,114995,0.0491,-0.0120,-9.5833,0.0208,-0.0586,-0.0293,23.71
50901315187500,115006,0.0479,-0.0144,-9.5833,0.0208,-0.0586,-0.0293,23.65
50901326408400,115018,0.0526,-0.0132,-9.5821,0.0208,-0.0586,-0.0305,23.65
50901337768900,115029,0.0514,-0.0072,-9.5821,0.0208,-0.0586,-0.0293,23.66
50901349263200,115040,0.0431,-0.0156,-9.5892,0.0208,-0.0586,-0.0293,23.65
50901360518000,115051,0.0467,-0.0132,-9.5916,0.0208,-0.0586,-0.0293,23.65
50901371384000,115063,0.0467,-0.0108,-9.5856,0.0208,-0.0586,-0.0293,23.64
50901383202700,115074,0.0455,-0.0144,-9.5785,0.0208,-0.0586,-0.0305,23.64
50901394513300,115085,0.0502,-0.0132,-9.5785,0.0208,-0.0586,-0.0293,23.70
50901405686900,115097,0.0526,-0.0084,-9.5821,0.0195,-0.0586,-0.0293,23.70
50901416973100,115108,0.0502,-0.0096,-9.5845,0.0208,-0.0586,-0.0293,23.66
50901428250700,115119,0.0467,-0.0179,-9.5868,0.0208,-0.0586,-0.0305,23.68
50901439693600,115131,0.0455,-0.0132,-9.5797,0.0208,-0.0586,-0.0293,23.68
50901451212200,115142,0.0479,-0.0084,-9.5892,0.0208,-0.0586,-0.0305,23.67
50901462405600,115154,0.0479,-0.0096,-9.5916,0.0208,-0.0599,-0.0293,23.67
50901473743800,115165,0.0455,-0.0096,-9.5809,0.0208,-0.0586,-0.0305,23.69
50901485201200,115176,0.0479,-0.0120,-9.5833,0.0208,-0.0586,-0.0305,23.69
50901496428200,115188,0.0502,-0.0144,-9.5868,0.0208,-0.0586,-0.0305,23.68
50901507645600,115199,0.0491,-0.0084,-9.5785,0.0195,-0.0586,-0.0293,23.68
50901519019700,115210,0.0538,-0.0132,-9.5797,0.0208,-0.0586,-0.0293,23.70
50901530307300,115222,0.0538,-0.0120,-9.5856,0.0195,-0.0574,-0.0293,23.70
50901541618800,115233,0.0502,-0.0096,-9.5880,0.0208,-0.0586,-0.0305,23.70
50901552989700,115244,0.0502,-0.0108,-9.5785,0.0208,-0.0599,-0.0305,23.66
50901564325600,115256,0.0502,-0.0072,-9.5785,0.0195,-0.0586,-0.0293,23.66
50901575682600,115267,0.0479,-0.0084,-9.5868,0.0208,-0.0586,-0.0293,23.69
50901587207800,115278,0.0443,-0.0144,-9.5845,0.0195,-0.0586,-0.0305,23.69
50901598439800,115290,0.0502,-0.0096,-9.5833,0.0208,-0.0586,-0.0293,23.64
50901609925700,115301,0.0479,-0.0060,-9.5856,0.0195,-0.0586,-0.0293,23.65
50901621244300,115312,0.0479,-0.0036,-9.5773,0.0208,-0.0586,-0.0293,23.65
50901632609000,115324,0.0491,-0.0060,-9.5785,0.0208,-0.0586,-0.0293,23.67
50901643903700,115335,0.0502,-0.0132,-9.5880,0.0208,-0.0586,-0.0293,23.67
50901655432300,115346,0.0491,-0.0144,-9.5856,0.0208,-0.0586,-0.0293,23.69
50901666646400,115358,0.0491,-0.0156,-9.5809,0.0208,-0.0586,-0.0293,23.69
50901677998900,115369,0.0467,-0.0096,-9.5868,0.0208,-0.0586,-0.0293,23.66
50901689298800,115380,0.0479,-0.0084,-9.5856,0.0208,-0.0586,-0.0305,23.71
50901700651700,115392,0.0431,-0.0048,-9.5856,0.0208,-0.0586,-0.0305,23.71
50901711925000,115403,0.0443,-0.0012,-9.5916,0.0208,-0.0586,-0.0293,23.70
50901723226700,115414,0.0526,-0.0096,-9.5904,0.0208,-0.0599,-0.0293,23.70
50901734486900,115426,0.0526,-0.0084,-9.5868,0.0208,-0.0586,-0.0293,23.68
50901745867500,115437,0.0502,-0.0060,-9.5868,0.0208,-0.0574,-0.0293,23.68
50901757290700,115448,0.0431,-0.0108,-9.5833,0.0208,-0.0574,-0.0293,23.71
50901768459700,115460,0.0526,-0.0120,-9.5856,0.0195,-0.0586,-0.0293,23.67
50901779742900,115471,0.0467,-0.0084,-9.5868,0.0195,-0.0574,-0.0293,23.67
50901791115800,115482,0.0419,-0.0072,-9.5868,0.0208,-0.0586,-0.0305,23.67
50901802488800,115494,0.0443,-0.0096,-9.5856,0.0208,-0.0586,-0.0305,23.67
50901813662500,115505,0.0479,-0.0120,-9.5821,0.0208,-0.0586,-0.0305,23.73
50901825099200,115516,0.0491,-0.0096,-9.5845,0.0195,-0.0586,-0.0293,23.73
50901836440300,115528,0.0443,-0.0108,-9.5904,0.0208,-0.0586,-0.0293,23.70
50901847751300,115539,0.0526,-0.0120,-9.5797,0.0208,-0.0586,-0.0293,23.68
50901859044700,115550,0.0491,-0.0144,-9.5809,0.0208,-0.0586,-0.0305,23.68
50901870424000,115562,0.0443,-0.0120,-9.5880,0.0208,-0.0586,-0.0293,23.70
50901881670600,115573,0.0467,-0.0096,-9.5880,0.0195,-0.0586,-0.0293,23.70
50901893084700,115584,0.0467,-0.0096,-9.5892,0.0195,-0.0586,-0.0305,23.68
50901904536000,115596,0.0491,-0.0096,-9.5904,0.0195,-0.0599,-0.0293,23.68
50901915822300,115607,0.0538,-0.0060,-9.5845,0.0208,-0.0586,-0.0305,23.69
50901927142200,115618,0.0514,-0.0036,-9.5773,0.0195,-0.0586,-0.0305,23.69
50901938454800,115630,0.0491,-0.0060,-9.5916,0.0195,-0.0586,-0.0293,23.70
50901949716400,115641,0.0491,-0.0096,-9.5880,0.0208,-0.0586,-0.0293,23.68
50901961010900,115652,0.0502,-0.0108,-9.5868,0.0208,-0.0586,-0.0293,23.68
50901972349600,115664,0.0502,-0.0108,-9.5880,0.0208,-0.0574,-0.0305,23.71
50901983671000,115675,0.0502,-0.0120,-9.5809,0.0195,-0.0574,-0.0305,23.71
50901995138500,115686,0.0514,-0.0120,-9.5845,0.0208,-0.0586,-0.0293,23.71
50902006491800,115698,0.0514,-0.0084,-9.5940,0.0208,-0.0574,-0.0305,23.71
50902018257800,115709,0.0467,-0.0167,-9.5833,0.0208,-0.0586,-0.0305,23.68
50902029291300,115720,0.0479,-0.0120,-9.5845,0.0195,-0.0586,-0.0293,23.70
50902040381000,115732,0.0502,-0.0084,-9.5904,0.0195,-0.0586,-0.0305,23.70
50902051740000,115743,0.0502,-0.0144,-9.5845,0.0208,-0.0599,-0.0293,23.68
50902063057500,115754,0.0514,-0.0132,-9.5797,0.0208,-0.0586,-0.0293,23.68
50902074369600,115766,0.0502,-0.0084,-9.5892,0.0208,-0.0574,-0.0293,23.66
50902085710400,115777,0.0479,-0.0084,-9.5904,0.0208,-0.0574,-0.0293,23.66
50902096996200,115788,0.0491,-0.0096,-9.5797,0.0208,-0.0586,-0.0293,23.68
50902108442700,115800,0.0467,-0.0144,-9.5833,0.0208,-0.0574,-0.0305,23.70
50902119806400,115811,0.0455,-0.0108,-9.5821,0.0208,-0.0586,-0.0293,23.70
50902131162800,115822,0.0479,-0.0108,-9.5821,0.0208,-0.0586,-0.0305,23.67
50902142682400,115834,0.0502,-0.0120,-9.5845,0.0208,-0.0586,-0.0293,23.67
50902153957900,115845,0.0479,-0.0120,-9.5856,0.0208,-0.0586,-0.0293,23.66
50902165254800,115856,0.0467,-0.0156,-9.5856,0.0208,-0.0599,-0.0293,23.66
50902176673800,115868,0.0467,-0.0179,-9.5797,0.0208,-0.0586,-0.0293,23.68
50902188220800,115879,0.0455,-0.0144,-9.5916,0.0195,-0.0586,-0.0305,23.65
50902198792800,115890,0.0514,-0.0108,-9.5952,0.0195,-0.0586,-0.0305,23.65
50902210443300,115902,0.0491,-0.0072,-9.5856,0.0208,-0.0586,-0.0305,23.70
50902222119800,115913,0.0467,-0.0072,-9.5809,0.0208,-0.0586,-0.0293,23.70
50902233325100,115924,0.0467,-0.0096,-9.5845,0.0208,-0.0586,-0.0305,23.65
50902244704600,115936,0.0419,-0.0084,-9.5880,0.0208,-0.0586,-0.0293,23.65
50902256035700,115947,0.0383,-0.0084,-9.5892,0.0208,-0.0586,-0.0305,23.70
50902267353300,115958,0.0467,-0.0096,-9.5904,0.0208,-0.0574,-0.0305,23.70
50902278634800,115970,0.0526,-0.0132,-9.5785,0.0195,-0.0574,-0.0293,23.69
50902289999300,115981,0.0479,-0.0120,-9.5797,0.0195,-0.0586,-0.0293,23.68
50902301329900,115992,0.0419,-0.0084,-9.5856,0.0208,-0.0586,-0.0293,23.68
50902312606900,116004,0.0419,-0.0084,-9.5821,0.0208,-0.0586,-0.0293,23.71
50902324045000,116015,0.0431,-0.0096,-9.5833,0.0208,-0.0574,-0.0293,23.71
50902335386000,116026,0.0467,-0.0120,-9.5880,0.0195,-0.0574,-0.0293,23.69
50902346732900,116038,0.0455,-0.0144,-9.5892,0.0208,-0.0586,-0.0293,23.69
50902359074800,116049,0.0419,-0.0108,-9.5797,0.0208,-0.0574,-0.0293,23.71
50902370324900,116060,0.0443,-0.0120,-9.5880,0.0208,-0.0586,-0.0293,23.70
50902381732900,116072,0.0479,-0.0132,-9.5904,0.0208,-0.0586,-0.0293,23.70
50902393041000,116083,0.0514,-0.0120,-9.5868,0.0195,-0.0586,-0.0305,23.68
50902404249700,116094,0.0538,-0.0108,-9.5856,0.0208,-0.0574,-0.0305,23.68
50902415620900,116106,0.0502,-0.0072,-9.5856,0.0208,-0.0574,-0.0305,23.67
50902426830300,116117,0.0514,-0.0084,-9.5797,0.0208,-0.0586,-0.0293,23.67
50902438041300,116128,0.0467,-0.0120,-9.5856,0.0208,-0.0586,-0.0293,23.67
50902449244800,116140,0.0431,-0.0132,-9.5821,0.0208,-0.0586,-0.0281,23.69
50902460610300,116151,0.0443,-0.0167,-9.5892,0.0208,-0.0586,-0.0293,23.69
50902471879900,116162,0.0479,-0.0132,-9.5916,0.0195,-0.0586,-0.0305,23.67
50902483167000,116174,0.0491,-0.0108,-9.5880,0.0208,-0.0574,-0.0293,23.67
50902494258200,116185,0.0526,-0.0072,-9.5904,0.0195,-0.0586,-0.0293,23.69
50902505809200,116196,0.0502,-0.0048,-9.5880,0.0195,-0.0586,-0.0293,23.69
50902517213700,116208,0.0479,-0.0024,-9.5833,0.0208,-0.0586,-0.0305,23.66
50902528780000,116219,0.0479,-0.0108,-9.5845,0.0195,-0.0586,-0.0305,23.71
50902540074200,116230,0.0467,-0.0108,-9.5809,0.0195,-0.0586,-0.0293,23.71
50902552197600,116242,0.0455,-0.0108,-9.5856,0.0208,-0.0586,-0.0305,23.70
50902563027200,116253,0.0467,-0.0072,-9.5856,0.0195,-0.0574,-0.0293,23.70
50902574137000,116265,0.0479,-0.0072,-9.5856,0.0208,-0.0586,-0.0293,23.70
50902585488200,116276,0.0491,-0.0096,-9.5904,0.0208,-0.0574,-0.0305,23.70
50902596753500,116287,0.0502,-0.0084,-9.5916,0.0208,-0.0586,-0.0305,23.68
50902608206800,116299,0.0455,-0.0120,-9.5833,0.0208,-0.0574,-0.0305,23.68
50902619432000,116310,0.0491,-0.0191,-9.5892,0.0208,-0.0586,-0.0305,23.68
50902630748500,116321,0.0479,-0.0084,-9.5916,0.0208,-0.0586,-0.0293,23.71
50902641932200,116333,0.0491,0.0000,-9.5833,0.0208,-0.0586,-0.0305,23.71
50902653597200,116344,0.0467,-0.0072,-9.5868,0.0208,-0.0586,-0.0293,23.67
50902664819700,116355,0.0407,-0.0132,-9.5856,0.0208,-0.0586,-0.0305,23.67
50902676008500,116366,0.0443,-0.0108,-9.5821,0.0208,-0.0586,-0.0293,23.72
50902687233700,116378,0.0538,-0.0060,-9.5940,0.0208,-0.0586,-0.0305,23.72
50902698602600,116389,0.0443,-0.0072,-9.5833,0.0208,-0.0586,-0.0293,23.72
50902710156400,116400,0.0491,-0.0084,-9.5821,0.0195,-0.0574,-0.0305,23.72
50902721261500,116412,0.0562,-0.0096,-9.5940,0.0195,-0.0586,-0.0293,23.72
50902732577200,116423,0.0550,-0.0096,-9.5868,0.0208,-0.0574,-0.0293,23.70
50902744060900,116435,0.0467,-0.0096,-9.5809,0.0208,-0.0586,-0.0293,23.70
50902755515500,116446,0.0455,-0.0132,-9.5856,0.0208,-0.0586,-0.0305,23.68
50902766795600,116457,0.0467,-0.0120,-9.5916,0.0208,-0.0599,-0.0293,23.68
50902778081900,116469,0.0455,-0.0096,-9.5880,0.0195,-0.0586,-0.0293,23.66
50902789450000,116480,0.0443,-0.0084,-9.5868,0.0208,-0.0586,-0.0293,23.71
50902800932300,116491,0.0455,-0.0096,-9.5904,0.0208,-0.0574,-0.0305,23.71
50902812392300,116503,0.0467,-0.0072,-9.5856,0.0195,-0.0574,-0.0293,23.66
50902823622400,116514,0.0491,-0.0036,-9.5797,0.0195,-0.0586,-0.0293,23.66
50902834849600,116525,0.0562,-0.0060,-9.5821,0.0208,-0.0586,-0.0293,23.71
50902846550700,116537,0.0562,-0.0060,-9.5821,0.0208,-0.0586,-0.0293,23.71
50902857509900,116548,0.0538,-0.0060,-9.5856,0.0208,-0.0586,-0.0305,23.67
50902868797800,116559,0.0491,-0.0024,-9.5785,0.0195,-0.0586,-0.0293,23.69
50902880160700,116571,0.0431,-0.0036,-9.5845,0.0208,-0.0574,-0.0293,23.69
50902891593500,116582,0.0455,-0.0120,-9.5940,0.0208,-0.0586,-0.0293,23.70
50902902835900,116593,0.0538,-0.0132,-9.5856,0.0195,-0.0586,-0.0293,23.70
50902914115000,116605,0.0538,-0.0108,-9.5761,0.0208,-0.0574,-0.0293,23.68
50902925361900,116616,0.0502,-0.0084,-9.5868,0.0208,-0.0586,-0.0305,23.68
50902936728500,116627,0.0443,-0.0060,-9.5880,0.0208,-0.0586,-0.0293,23.69
50902948042400,116639,0.0514,-0.0120,-9.5809,0.0208,-0.0574,-0.0293,23.69
50902959358700,116650,0.0491,-0.0072,-9.5928,0.0195,-0.0574,-0.0293,23.69
50902970836900,116661,0.0443,-0.0024,-9.5892,0.0208,-0.0599,-0.0293,23.71
50902982091300,116673,0.0479,-0.0024,-9.5785,0.0208,-0.0586,-0.0293,23.71
50902993291200,116684,0.0526,-0.0072,-9.5809,0.0208,-0.0586,-0.0293,23.71
50903005014600,116695,0.0514,-0.0060,-9.5880,0.0208,-0.0574,-0.0305,23.71
50903016026600,116707,0.0467,-0.0012,-9.5821,0.0208,-0.0586,-0.0305,23.74
50903027374900,116718,0.0443,-0.0036,-9.5797,0.0208,-0.0586,-0.0293,23.74
50903038935200,116729,0.0491,-0.0132,-9.5916,0.0195,-0.0586,-0.0305,23.71
50903049945800,116741,0.0502,-0.0144,-9.5809,0.0195,-0.0586,-0.0293,23.68
50903061395400,116752,0.0526,-0.0144,-9.5868,0.0208,-0.0586,-0.0305,23.68
50903072646500,116763,0.0514,-0.0132,-9.5904,0.0208,-0.0586,-0.0293,23.70
50903083931500,116775,0.0491,-0.0108,-9.5773,0.0195,-0.0586,-0.0293,23.70
50903095306000,116786,0.0491,-0.0084,-9.5785,0.0208,-0.0586,-0.0293,23.68
50903106514600,116797,0.0514,-0.0108,-9.5964,0.0208,-0.0586,-0.0293,23.68
50903117974100,116808,0.0502,-0.0084,-9.5833,0.0208,-0.0574,-0.0305,23.65
50903129127900,116820,0.0479,-0.0072,-9.5880,0.0195,-0.0574,-0.0305,23.74
50903140519700,116831,0.0479,-0.0096,-9.5952,0.0208,-0.0586,-0.0305,23.74
50903152052000,116842,0.0491,-0.0084,-9.5892,0.0208,-0.0574,-0.0305,23.72
50903163453200,116854,0.0514,-0.0108,-9.5785,0.0208,-0.0586,-0.0293,23.72
50903174758200,116865,0.0526,-0.0179,-9.5868,0.0208,-0.0574,-0.0293,23.68
50903186037200,116876,0.0443,-0.0132,-9.5952,0.0208,-0.0586,-0.0293,23.68
50903197375300,116888,0.0419,-0.0096,-9.5785,0.0208,-0.0586,-0.0281,23.68
50903208799600,116899,0.0455,-0.0132,-9.5904,0.0208,-0.0586,-0.0293,23.74
50903219715300,116910,0.0491,-0.0132,-9.5868,0.0208,-0.0574,-0.0293,23.74
50903231599900,116922,0.0455,-0.0108,-9.5845,0.0208,-0.0586,-0.0293,23.72
50903243246500,116933,0.0407,-0.0120,-9.5880,0.0208,-0.0586,-0.0293,23.72
50903254509100,116944,0.0431,-0.0108,-9.5916,0.0195,-0.0599,-0.0293,23.68
50903265494100,116956,0.0455,-0.0120,-9.5892,0.0208,-0.0599,-0.0293,23.68
50903276746600,116967,0.0443,-0.0120,-9.5845,0.0208,-0.0586,-0.0305,23.71
50903288206500,116978,0.0526,-0.0144,-9.5809,0.0195,-0.0574,-0.0305,23.68
50903299208900,116990,0.0550,-0.0132,-9.5785,0.0208,-0.0586,-0.0305,23.68
50903310505100,117001,0.0526,-0.0108,-9.5880,0.0208,-0.0586,-0.0293,23.71
50903321961900,117012,0.0491,-0.0048,-9.5880,0.0208,-0.0586,-0.0293,23.71
50903333310500,117024,0.0491,-0.0036,-9.5833,0.0208,-0.0586,-0.0281,23.73
50903344017200,117035,0.0479,-0.0072,-9.5868,0.0220,-0.0574,-0.0293,23.73
50903355675400,117046,0.0479,-0.0036,-9.5868,0.0208,-0.0586,-0.0293,23.71
50903366704600,117058,0.0514,-0.0048,-9.5904,0.0195,-0.0586,-0.0305,23.71
50903378061800,117069,0.0479,-0.0096,-9.5892,0.0208,-0.0586,-0.0293,23.68
50903389381400,117080,0.0467,-0.0144,-9.5833,0.0208,-0.0586,-0.0305,23.68
50903400822900,117092,0.0467,-0.0120,-9.5916,0.0208,-0.0586,-0.0293,23.68
50903411961200,117103,0.0467,-0.0072,-9.5916,0.0208,-0.0586,-0.0293,23.75
50903423316900,117114,0.0467,-0.0072,-9.5868,0.0208,-0.0586,-0.0293,23.75
50903434649800,117126,0.0526,-0.0072,-9.5904,0.0208,-0.0586,-0.0293,23.74
50903445933100,117137,0.0526,-0.0072,-9.5892,0.0208,-0.0586,-0.0293,23.74
50903457303500,117148,0.0443,-0.0084,-9.5821,0.0208,-0.0586,-0.0293,23.68
50903468622800,117160,0.0395,-0.0108,-9.5904,0.0208,-0.0599,-0.0305,23.72
50903479960000,117171,0.0443,-0.0096,-9.5856,0.0208,-0.0586,-0.0293,23.72
50903491325000,117182,0.0526,-0.0084,-9.5797,0.0195,-0.0586,-0.0293,23.71
50903502598400,117194,0.0502,-0.0108,-9.5880,0.0208,-0.0586,-0.0293,23.71
50903513872100,117205,0.0419,-0.0108,-9.5833,0.0195,-0.0586,-0.0305,23.71
50903525175000,117216,0.0443,-0.0144,-9.5725,0.0195,-0.0574,-0.0305,23.71
50903536279000,117228,0.0550,-0.0156,-9.5821,0.0208,-0.0586,-0.0305,23.73
50903547573500,117239,0.0407,-0.0120,-9.5845,0.0208,-0.0586,-0.0293,23.71
50903558904300,117250,0.0491,-0.0084,-9.5904,0.0208,-0.0586,-0.0293,23.71
50903570584500,117261,0.0538,-0.0084,-9.5845,0.0208,-0.0586,-0.0305,23.70
50903581613300,117273,0.0443,-0.0096,-9.5797,0.0208,-0.0586,-0.0293,23.70
50903593042000,117284,0.0443,-0.0096,-9.5809,0.0195,-0.0586,-0.0305,23.72
50903604346100,117295,0.0526,-0.0084,-9.5797,0.0208,-0.0586,-0.0305,23.72
50903615749800,117307,0.0514,-0.0072,-9.5809,0.0208,-0.0574,-0.0305,23.74
50903627134200,117318,0.0479,-0.0048,-9.5809,0.0208,-0.0599,-0.0293,23.74
50903638467100,117330,0.0479,-0.0072,-9.5809,0.0208,-0.0586,-0.0305,23.74
50903649713900,117341,0.0491,-0.0108,-9.5833,0.0208,-0.0586,-0.0305,23.69
50903661234200,117352,0.0514,-0.0096,-9.5868,0.0208,-0.0586,-0.0305,23.69
50903672697100,117364,0.0502,-0.0096,-9.5809,0.0208,-0.0586,-0.0305,23.68
50903683889000,117375,0.0443,-0.0060,-9.5809,0.0208,-0.0586,-0.0293,23.68
50903695092600,117386,0.0467,-0.0024,-9.5904,0.0208,-0.0586,-0.0305,23.75
50903706307600,117398,0.0467,-0.0048,-9.5868,0.0208,-0.0574,-0.0293,23.75
50903717697000,117409,0.0538,-0.0060,-9.5868,0.0208,-0.0586,-0.0293,23.70
50903728978400,117420,0.0526,-0.0096,-9.5833,0.0195,-0.0586,-0.0305,23.75
50903740480600,117432,0.0502,-0.0120,-9.5749,0.0208,-0.0586,-0.0293,23.75
50903751770800,117443,0.0479,-0.0084,-9.5761,0.0195,-0.0586,-0.0293,23.75
50903763012700,117454,0.0526,-0.0084,-9.5868,0.0195,-0.0599,-0.0293,23.75
50903774287500,117466,0.0514,-0.0072,-9.5964,0.0208,-0.0586,-0.0293,23.72
50903785759700,117477,0.0514,-0.0048,-9.5904,0.0208,-0.0586,-0.0293,23.72
50903797103700,117488,0.0443,-0.0036,-9.5845,0.0208,-0.0586,-0.0293,23.69
50903808352000,117500,0.0407,-0.0084,-9.5868,0.0208,-0.0574,-0.0305,23.69
50903819685200,117511,0.0491,-0.0096,-9.5892,0.0195,-0.0574,-0.0305,23.69
50903831009000,117522,0.0562,-0.0084,-9.5880,0.0208,-0.0586,-0.0305,23.71
50903842273100,117534,0.0502,-0.0084,-9.5845,0.0208,-0.0586,-0.0305,23.71
50903853624200,117545,0.0479,-0.0096,-9.5916,0.0208,-0.0586,-0.0305,23.71
50903864904300,117556,0.0526,-0.0108,-9.5904,0.0208,-0.0586,-0.0293,23.71
50903876259900,117568,0.0538,-0.0096,-9.5773,0.0208,-0.0586,-0.0293,23.68
50903887671000,117579,0.0550,-0.0179,-9.5880,0.0208,-0.0586,-0.0293,23.70
50903898979500,117590,0.0634,-0.0132,-9.5868,0.0195,-0.0586,-0.0293,23.70
50903910548000,117602,0.0574,-0.0108,-9.5761,0.0195,-0.0586,-0.0293,23.71
50903921838100,117613,0.0479,-0.0108,-9.5797,0.0195,-0.0574,-0.0293,23.71
50903933082400,117624,0.0419,-0.0120,-9.5868,0.0195,-0.0586,-0.0305,23.70
50903944491700,117636,0.0419,-0.0084,-9.5845,0.0208,-0.0586,-0.0293,23.70
50903955870900,117647,0.0479,-0.0072,-9.5916,0.0195,-0.0574,-0.0305,23.72
50903967189200,117658,0.0491,-0.0096,-9.5845,0.0195,-0.0586,-0.0305,23.73
50903978502300,117670,0.0455,-0.0072,-9.5821,0.0208,-0.0586,-0.0305,23.73
50903989865900,117681,0.0502,-0.0060,-9.5928,0.0195,-0.0586,-0.0293,23.75
50904001237800,117692,0.0514,-0.0072,-9.5904,0.0195,-0.0586,-0.0293,23.75
50904012534300,117704,0.0479,-0.0072,-9.5773,0.0195,-0.0586,-0.0293,23.71
50904023838500,117715,0.0467,-0.0120,-9.5809,0.0208,-0.0586,-0.0293,23.71
50904035349600,117726,0.0491,-0.0120,-9.5904,0.0195,-0.0586,-0.0305,23.75
50904046364800,117738,0.0407,-0.0108,-9.5761,0.0195,-0.0599,-0.0293,23.75
50904057691600,117749,0.0419,-0.0060,-9.5868,0.0208,-0.0586,-0.0293,23.72
50904069044400,117760,0.0443,-0.0084,-9.5833,0.0208,-0.0586,-0.0293,23.72
50904080452600,117772,0.0479,-0.0072,-9.5773,0.0208,-0.0586,-0.0293,23.72
50904091779100,117783,0.0538,-0.0072,-9.5809,0.0208,-0.0586,-0.0293,23.72
50904103137700,117794,0.0526,-0.0084,-9.5868,0.0208,-0.0586,-0.0293,23.72
50904114525100,117806,0.0526,-0.0084,-9.5868,0.0195,-0.0586,-0.0293,23.73
50904125758800,117817,0.0574,-0.0108,-9.5845,0.0208,-0.0586,-0.0305,23.73
50904137013800,117828,0.0526,-0.0156,-9.5821,0.0208,-0.0586,-0.0305,23.70
50904148364700,117840,0.0538,-0.0108,-9.5809,0.0208,-0.0586,-0.0305,23.73
50904159743700,117851,0.0467,-0.0096,-9.5845,0.0208,-0.0599,-0.0305,23.73
50904170976900,117862,0.0419,-0.0120,-9.5833,0.0208,-0.0586,-0.0293,23.72
50904182332400,117874,0.0455,-0.0108,-9.5856,0.0208,-0.0574,-0.0305,23.72
50904193902000,117885,0.0479,-0.0072,-9.5904,0.0208,-0.0586,-0.0293,23.74
50904205223600,117896,0.0467,-0.0108,-9.5856,0.0208,-0.0599,-0.0293,23.74
50904216477500,117908,0.0502,-0.0132,-9.5845,0.0208,-0.0586,-0.0305,23.70
50904227843800,117919,0.0514,-0.0120,-9.5868,0.0208,-0.0586,-0.0305,23.70
50904239268600,117930,0.0467,-0.0084,-9.5785,0.0195,-0.0586,-0.0293,23.70
50904250746500,117941,0.0479,-0.0120,-9.5809,0.0208,-0.0586,-0.0293,23.72
50904262048200,117953,0.0538,-0.0108,-9.5892,0.0208,-0.0586,-0.0305,23.72
50904272853400,117964,0.0562,-0.0072,-9.5809,0.0208,-0.0586,-0.0293,23.73
50904284571500,117976,0.0514,-0.0096,-9.5856,0.0208,-0.0586,-0.0305,23.73
50904295824600,117987,0.0502,-0.0060,-9.5940,0.0208,-0.0586,-0.0293,23.73
50904307165200,117998,0.0538,-0.0120,-9.5868,0.0208,-0.0586,-0.0305,23.71
50904318464800,118009,0.0443,-0.0132,-9.5868,0.0208,-0.0586,-0.0305,23.71
50904329800800,118021,0.0419,-0.0096,-9.5845,0.0208,-0.0586,-0.0305,23.77
50904341159200,118032,0.0479,-0.0096,-9.5845,0.0208,-0.0586,-0.0305,23.77
50904352666200,118043,0.0526,-0.0084,-9.5868,0.0208,-0.0586,-0.0293,23.70
50904363969900,118055,0.0491,-0.0096,-9.5845,0.0208,-0.0586,-0.0293,23.70
50904375189000,118066,0.0443,-0.0132,-9.5880,0.0208,-0.0599,-0.0305,23.75
50904386516900,118077,0.0526,-0.0132,-9.5856,0.0195,-0.0586,-0.0305,23.75
50904397411400,118089,0.0526,-0.0144,-9.5880,0.0208,-0.0586,-0.0305,23.73
50904409172800,118100,0.0491,-0.0108,-9.5904,0.0195,-0.0586,-0.0305,23.71
50904420437400,118111,0.0443,-0.0036,-9.5833,0.0208,-0.0586,-0.0293,23.71
50904431773300,118123,0.0514,-0.0096,-9.5880,0.0220,-0.0586,-0.0293,23.73
50904443208800,118134,0.0574,-0.0179,-9.5833,0.0208,-0.0586,-0.0293,23.73
50904454436400,118145,0.0526,-0.0132,-9.5761,0.0208,-0.0586,-0.0305,23.72
50904465717200,118157,0.0502,-0.0120,-9.5833,0.0208,-0.0574,-0.0293,23.72
50904477017400,118168,0.0479,-0.0144,-9.5833,0.0208,-0.0586,-0.0293,23.75
50904488392600,118179,0.0514,-0.0096,-9.5868,0.0208,-0.0586,-0.0293,23.75
50904499726700,118191,0.0514,-0.0060,-9.5880,0.0195,-0.0586,-0.0281,23.75
50904510935600,118202,0.0455,-0.0012,-9.5809,0.0208,-0.0599,-0.0293,23.72
50904522228700,118213,0.0407,-0.0036,-9.5821,0.0208,-0.0586,-0.0293,23.72
50904533474600,118225,0.0407,-0.0084,-9.5880,0.0208,-0.0586,-0.0293,23.73
50904544788500,118236,0.0431,-0.0120,-9.5833,0.0208,-0.0574,-0.0305,23.73
50904556118400,118247,0.0383,-0.0084,-9.5928,0.0208,-0.0586,-0.0293,23.73
50904567436300,118259,0.0455,-0.0084,-9.5892,0.0208,-0.0586,-0.0305,23.71
50904578795700,118270,0.0479,-0.0084,-9.5785,0.0208,-0.0586,-0.0293,23.71
50904590036600,118281,0.0467,-0.0060,-9.5833,0.0208,-0.0586,-0.0305,23.72
50904601599900,118293,0.0479,-0.0036,-9.5880,0.0195,-0.0586,-0.0305,23.72
50904612846200,118304,0.0514,-0.0024,-9.5833,0.0208,-0.0586,-0.0305,23.70
50904624172300,118315,0.0538,-0.0060,-9.5821,0.0208,-0.0574,-0.0305,23.70
50904635511500,118327,0.0479,-0.0156,-9.5833,0.0208,-0.0574,-0.0293,23.75
50904646728500,118338,0.0443,-0.0191,-9.5761,0.0208,-0.0586,-0.0293,23.75
50904658082100,118349,0.0479,-0.0167,-9.5785,0.0208,-0.0586,-0.0305,23.75
50904669676200,118361,0.0491,-0.0108,-9.5868,0.0208,-0.0586,-0.0293,23.73
50904680885800,118372,0.0455,-0.0036,-9.5868,0.0208,-0.0574,-0.0305,23.73
50904692189800,118383,0.0538,-0.0036,-9.5856,0.0208,-0.0574,-0.0305,23.75
50904703418900,118395,0.0610,-0.0120,-9.5821,0.0208,-0.0586,-0.0305,23.75
50904714761900,118406,0.0550,-0.0179,-9.5773,0.0208,-0.0586,-0.0293,23.71
50904726053400,118417,0.0562,-0.0120,-9.5916,0.0195,-0.0574,-0.0293,23.71
50904737302900,118429,0.0538,-0.0084,-9.5892,0.0195,-0.0586,-0.0293,23.74
50904748250200,118440,0.0610,-0.0084,-9.5833,0.0195,-0.0586,-0.0293,23.73
50904760025100,118451,0.0598,-0.0120,-9.5833,0.0208,-0.0599,-0.0293,23.73
50904771315300,118463,0.0550,-0.0096,-9.5845,0.0195,-0.0599,-0.0293,23.80
50904782752700,118474,0.0574,-0.0132,-9.5845,0.0195,-0.0586,-0.0293,23.80
50904794064200,118485,0.0538,-0.0120,-9.5916,0.0208,-0.0586,-0.0293,23.72
50904805350100,118497,0.0526,-0.0096,-9.5940,0.0208,-0.0586,-0.0305,23.72
50904816693300,118508,0.0467,-0.0036,-9.5797,0.0208,-0.0586,-0.0293,23.73
50904828223800,118519,0.0443,-0.0048,-9.5833,0.0195,-0.0599,-0.0305,23.72
50904839395000,118530,0.0407,-0.0072,-9.5833,0.0195,-0.0586,-0.0305,23.72
50904850677500,118542,0.0347,-0.0036,-9.5821,0.0208,-0.0586,-0.0293,23.74
50904861956700,118553,0.0335,-0.0024,-9.5845,0.0208,-0.0586,-0.0305,23.74
50904873141700,118564,0.0407,-0.0108,-9.5892,0.0208,-0.0599,-0.0293,23.73
50904884654100,118576,0.0419,-0.0167,-9.5892,0.0208,-0.0586,-0.0293,23.73
50904896063700,118587,0.0419,-0.0156,-9.5880,0.0195,-0.0586,-0.0293,23.74
50904907380500,118599,0.0491,-0.0072,-9.5845,0.0208,-0.0599,-0.0305,23.77
50904918784800,118610,0.0479,-0.0036,-9.5809,0.0208,-0.0599,-0.0293,23.77
50904930158100,118621,0.0467,-0.0060,-9.5833,0.0208,-0.0599,-0.0293,23.74
50904941398100,118633,0.0455,-0.0060,-9.5892,0.0208,-0.0586,-0.0305,23.74
50904952771400,118644,0.0455,-0.0036,-9.5916,0.0208,-0.0599,-0.0305,23.75
50904964137700,118655,0.0479,-0.0048,-9.5845,0.0208,-0.0586,-0.0293,23.75
50904975486000,118667,0.0431,-0.0108,-9.5845,0.0208,-0.0586,-0.0305,23.77
50904986753500,118678,0.0479,-0.0144,-9.5880,0.0208,-0.0586,-0.0293,23.76
50904998207700,118689,0.0526,-0.0144,-9.5833,0.0208,-0.0586,-0.0293,23.76
50905009481700,118701,0.0514,-0.0132,-9.5797,0.0208,-0.0599,-0.0305,23.75
50905020738300,118712,0.0455,-0.0096,-9.5809,0.0208,-0.0599,-0.0293,23.75
50905032077300,118723,0.0443,-0.0084,-9.5821,0.0208,-0.0599,-0.0305,23.80
50905043441000,118735,0.0514,-0.0108,-9.5880,0.0208,-0.0586,-0.0293,23.80
50905054751600,118746,0.0538,-0.0108,-9.5856,0.0208,-0.0586,-0.0293,23.73
50905066050900,118757,0.0526,-0.0120,-9.5880,0.0195,-0.0586,-0.0293,23.73
50905077430800,118769,0.0526,-0.0132,-9.5868,0.0208,-0.0586,-0.0293,23.79
50905088779500,118780,0.0550,-0.0108,-9.5821,0.0208,-0.0586,-0.0293,23.75
50905100109500,118791,0.0491,-0.0072,-9.5833,0.0208,-0.0586,-0.0293,23.75
50905111487300,118803,0.0538,-0.0084,-9.5856,0.0220,-0.0586,-0.0293,23.77
50905122806100,118814,0.0574,-0.0108,-9.5845,0.0208,-0.0586,-0.0305,23.77
50905134142500,118825,0.0491,-0.0108,-9.5773,0.0208,-0.0586,-0.0305,23.73
50905145414700,118837,0.0479,-0.0144,-9.5773,0.0208,-0.0574,-0.0305,23.73
50905156707900,118848,0.0479,-0.0132,-9.5821,0.0195,-0.0574,-0.0305,23.72
50905168022600,118859,0.0491,-0.0108,-9.5833,0.0208,-0.0586,-0.0293,23.75
50905179341200,118871,0.0514,-0.0108,-9.5785,0.0208,-0.0599,-0.0293,23.75
50905190655400,118882,0.0455,-0.0108,-9.5797,0.0208,-0.0599,-0.0293,23.75
50905201984700,118893,0.0443,-0.0108,-9.5809,0.0208,-0.0586,-0.0305,23.75
50905213359600,118904,0.0443,-0.0108,-9.5785,0.0208,-0.0586,-0.0293,23.75
50905224679600,118916,0.0431,-0.0084,-9.5856,0.0208,-0.0586,-0.0293,23.75
50905236077000,118927,0.0514,-0.0096,-9.5821,0.0208,-0.0574,-0.0293,23.76
50905247467300,118938,0.0479,-0.0084,-9.5856,0.0208,-0.0586,-0.0305,23.76
50905258755600,118950,0.0467,-0.0036,-9.5856,0.0208,-0.0586,-0.0293,23.76
50905270244700,118961,0.0491,-0.0060,-9.5821,0.0208,-0.0586,-0.0293,23.74
50905281618300,118973,0.0502,-0.0084,-9.5880,0.0208,-0.0599,-0.0293,23.74
50905292988100,118984,0.0479,-0.0108,-9.5856,0.0208,-0.0586,-0.0293,23.75
50905304371300,118995,0.0455,-0.0096,-9.5797,0.0208,-0.0586,-0.0305,23.75
50905315213800,119007,0.0407,-0.0144,-9.5821,0.0208,-0.0586,-0.0305,23.76
50905327052300,119018,0.0467,-0.0120,-9.5892,0.0208,-0.0586,-0.0293,23.71
50905338932100,119029,0.0491,-0.0084,-9.5797,0.0208,-0.0586,-0.0293,23.71
50905349947300,119041,0.0538,-0.0048,-9.5785,0.0208,-0.0586,-0.0293,23.72
50905361040300,119052,0.0479,-0.0048,-9.5868,0.0208,-0.0586,-0.0293,23.72
50905372369700,119063,0.0467,-0.0048,-9.5868,0.0208,-0.0586,-0.0305,23.75
50905383530200,119075,0.0443,-0.0084,-9.5845,0.0208,-0.0574,-0.0293,23.75
50905394950100,119086,0.0443,-0.0108,-9.5856,0.0195,-0.0586,-0.0293,23.75
50905406335300,119097,0.0491,-0.0048,-9.5904,0.0208,-0.0599,-0.0305,23.72
50905417569400,119109,0.0514,-0.0036,-9.5916,0.0208,-0.0586,-0.0305,23.72
50905428869800,119120,0.0538,-0.0108,-9.5916,0.0208,-0.0574,-0.0305,23.73
50905440293300,119131,0.0491,-0.0096,-9.5880,0.0208,-0.0586,-0.0305,23.73
50905451581000,119143,0.0491,-0.0108,-9.5928,0.0208,-0.0586,-0.0305,23.76
50905463022100,119154,0.0491,-0.0156,-9.5892,0.0208,-0.0586,-0.0305,23.76
50905474181200,119165,0.0491,-0.0144,-9.5821,0.0208,-0.0586,-0.0293,23.79
50905485632000,119177,0.0502,-0.0120,-9.5797,0.0208,-0.0586,-0.0293,23.79
50905497073000,119188,0.0431,-0.0084,-9.5845,0.0208,-0.0586,-0.0293,23.75
50905508349900,119199,0.0467,-0.0072,-9.5880,0.0208,-0.0586,-0.0305,23.76
50905519653100,119211,0.0431,-0.0096,-9.5821,0.0208,-0.0586,-0.0293,23.76
50905530914900,119222,0.0431,-0.0084,-9.5773,0.0208,-0.0586,-0.0293,23.75
50905542714600,119233,0.0431,-0.0084,-9.5809,0.0208,-0.0586,-0.0293,23.75
50905553696200,119245,0.0502,-0.0108,-9.5845,0.0208,-0.0586,-0.0305,23.71
50905564911000,119256,0.0538,-0.0060,-9.5833,0.0208,-0.0574,-0.0293,23.71
50905576326600,119267,0.0467,-0.0084,-9.5845,0.0208,-0.0586,-0.0293,23.75
50905587619700,119279,0.0491,-0.0156,-9.5892,0.0208,-0.0586,-0.0293,23.73
50905598928600,119290,0.0550,-0.0179,-9.5916,0.0208,-0.0586,-0.0305,23.73
50905610231700,119301,0.0538,-0.0167,-9.5845,0.0208,-0.0586,-0.0305,23.75
50905621484800,119313,0.0467,-0.0144,-9.5833,0.0208,-0.0574,-0.0305,23.75
50905632868600,119324,0.0443,-0.0120,-9.5856,0.0208,-0.0599,-0.0293,23.73
50905644027700,119335,0.0479,-0.0096,-9.5856,0.0208,-0.0586,-0.0293,23.73
50905655348700,119347,0.0538,-0.0072,-9.5845,0.0208,-0.0574,-0.0305,23.76
50905666702200,119358,0.0479,-0.0072,-9.5821,0.0208,-0.0586,-0.0305,23.77
50905678313400,119369,0.0467,-0.0060,-9.5868,0.0208,-0.0586,-0.0293,23.77
50905689570100,119381,0.0467,-0.0072,-9.5845,0.0208,-0.0586,-0.0293,23.75
50905700839900,119392,0.0502,-0.0144,-9.5821,0.0208,-0.0574,-0.0293,23.75
50905711966700,119403,0.0538,-0.0156,-9.5809,0.0208,-0.0586,-0.0293,23.78
50905723402200,119415,0.0502,-0.0084,-9.5856,0.0208,-0.0574,-0.0305,23.78
50905734750400,119426,0.0419,-0.0084,-9.5856,0.0208,-0.0586,-0.0293,23.77
50905746054200,119437,0.0502,-0.0120,-9.5809,0.0208,-0.0586,-0.0293,23.74
50905757415900,119449,0.0491,-0.0144,-9.5845,0.0208,-0.0586,-0.0293,23.74
50905768738700,119460,0.0479,-0.0108,-9.5845,0.0208,-0.0586,-0.0293,23.77
50905780075300,119471,0.0514,-0.0072,-9.5833,0.0208,-0.0586,-0.0293,23.77
50905791380700,119483,0.0502,-0.0036,-9.5809,0.0208,-0.0586,-0.0293,23.79
50905802815800,119494,0.0467,-0.0108,-9.5880,0.0208,-0.0586,-0.0293,23.79
50905814124900,119505,0.0467,-0.0084,-9.5964,0.0208,-0.0574,-0.0293,23.75
50905825317400,119517,0.0467,-0.0060,-9.5904,0.0195,-0.0586,-0.0293,23.75
50905836845700,119528,0.0419,-0.0144,-9.5928,0.0208,-0.0586,-0.0293,23.77
50905848114300,119539,0.0407,-0.0132,-9.5892,0.0208,-0.0586,-0.0293,23.78
50905859402700,119551,0.0443,-0.0096,-9.5761,0.0208,-0.0586,-0.0293,23.78
50905870639400,119562,0.0443,-0.0108,-9.5821,0.0208,-0.0574,-0.0293,23.75
50905881916900,119573,0.0455,-0.0132,-9.5880,0.0208,-0.0574,-0.0305,23.75
50905893233400,119584,0.0479,-0.0132,-9.5856,0.0208,-0.0586,-0.0305,23.74
50905904600500,119596,0.0455,-0.0108,-9.5845,0.0208,-0.0586,-0.0293,23.74
50905915944600,119607,0.0502,-0.0084,-9.5845,0.0195,-0.0586,-0.0293,23.80
50905927420100,119618,0.0491,-0.0096,-9.5821,0.0208,-0.0586,-0.0293,23.74
50905938881000,119630,0.0455,-0.0108,-9.5880,0.0208,-0.0586,-0.0305,23.74
50905949986300,119641,0.0443,-0.0120,-9.5856,0.0208,-0.0586,-0.0305,23.76
50905961285100,119652,0.0538,-0.0132,-9.5821,0.0208,-0.0586,-0.0293,23.76
50905972858300,119664,0.0502,-0.0108,-9.5845,0.0208,-0.0586,-0.0305,23.77
50905984451600,119675,0.0443,-0.0060,-9.5880,0.0208,-0.0586,-0.0293,23.77
50905996100100,119686,0.0443,-0.0048,-9.5821,0.0208,-0.0586,-0.0293,23.75
50906006696100,119698,0.0502,-0.0084,-9.5880,0.0208,-0.0586,-0.0305,23.79
50906017921600,119709,0.0562,-0.0108,-9.5809,0.0208,-0.0586,-0.0293,23.79
50906029370400,119720,0.0538,-0.0096,-9.5845,0.0208,-0.0574,-0.0293,23.77
50906040786600,119732,0.0538,-0.0144,-9.5940,0.0208,-0.0574,-0.0293,23.77
50906051979600,119743,0.0491,-0.0120,-9.5868,0.0195,-0.0586,-0.0293,23.76
50906063273900,119754,0.0467,-0.0084,-9.5773,0.0208,-0.0586,-0.0293,23.76
50906074408700,119766,0.0491,-0.0120,-9.5821,0.0195,-0.0586,-0.0293,23.75
50906085872600,119777,0.0491,-0.0060,-9.5892,0.0208,-0.0586,-0.0305,23.74
50906097192200,119788,0.0502,-0.0096,-9.5892,0.0208,-0.0586,-0.0293,23.74
50906108545700,119800,0.0467,-0.0096,-9.5880,0.0208,-0.0586,-0.0305,23.77
50906119956300,119811,0.0455,-0.0048,-9.5809,0.0208,-0.0586,-0.0305,23.77
50906131212600,119822,0.0491,-0.0048,-9.5785,0.0208,-0.0574,-0.0293,23.77
50906142480900,119834,0.0502,-0.0096,-9.5845,0.0208,-0.0586,-0.0305,23.77
50906153848300,119845,0.0467,-0.0108,-9.5833,0.0208,-0.0586,-0.0305,23.78
50906165217800,119856,0.0443,-0.0108,-9.5749,0.0208,-0.0586,-0.0293,23.78
50906176653000,119868,0.0526,-0.0096,-9.5809,0.0208,-0.0586,-0.0293,23.77
50906188072400,119879,0.0574,-0.0132,-9.5880,0.0208,-0.0586,-0.0305,23.81
50906199325400,119891,0.0562,-0.0167,-9.5833,0.0195,-0.0586,-0.0293,23.81
50906210687600,119902,0.0502,-0.0108,-9.5809,0.0208,-0.0586,-0.0293,23.79
50906221992700,119913,0.0514,-0.0108,-9.5892,0.0208,-0.0586,-0.0293,23.79
50906233259700,119924,0.0514,-0.0144,-9.5880,0.0208,-0.0586,-0.0293,23.79
50906244680000,119936,0.0455,-0.0084,-9.5833,0.0208,-0.0586,-0.0293,23.79
50906255949300,119947,0.0491,-0.0072,-9.5892,0.0208,-0.0586,-0.0305,23.77
50906267571700,119958,0.0502,-0.0096,-9.5856,0.0208,-0.0586,-0.0305,23.75
50906278647700,119970,0.0491,-0.0096,-9.5821,0.0208,-0.0586,-0.0305,23.75
50906289997900,119981,0.0479,-0.0132,-9.5868,0.0208,-0.0586,-0.0305,23.75
50906301393300,119992,0.0467,-0.0132,-9.5845,0.0195,-0.0586,-0.0305,23.75
50906312728900,120004,0.0443,-0.0108,-9.5880,0.0195,-0.0574,-0.0305,23.77
50906324015300,120015,0.0443,-0.0108,-9.5856,0.0195,-0.0574,-0.0305,23.77
50906335640400,120026,0.0479,-0.0084,-9.5892,0.0208,-0.0586,-0.0293,23.75
50906347731300,120038,0.0502,-0.0108,-9.5952,0.0208,-0.0586,-0.0293,23.77
50906366062400,120049,0.0514,-0.0132,-9.5856,0.0208,-0.0586,-0.0293,23.77
50906377274200,120067,0.0538,-0.0120,-9.5904,0.0208,-0.0586,-0.0293,23.78
50906388209100,120079,0.0514,-0.0120,-9.5904,0.0195,-0.0586,-0.0293,23.75
50906400235200,120090,0.0467,-0.0084,-9.5845,0.0208,-0.0586,-0.0293,23.75
50906411087300,120101,0.0491,-0.0048,-9.5797,0.0208,-0.0586,-0.0293,23.79
50906422493600,120113,0.0502,-0.0072,-9.5916,0.0208,-0.0574,-0.0293,23.79
50906433925100,120124,0.0419,-0.0096,-9.5928,0.0208,-0.0586,-0.0293,23.78
50906445295300,120135,0.0431,-0.0120,-9.5845,0.0208,-0.0586,-0.0293,23.78
50906456677600,120147,0.0538,-0.0167,-9.5797,0.0208,-0.0586,-0.0293,23.79
50906467886300,120158,0.0526,-0.0179,-9.5845,0.0208,-0.0586,-0.0293,23.78
50906479208800,120170,0.0431,-0.0156,-9.5880,0.0208,-0.0586,-0.0293,23.78
50906490610000,120181,0.0467,-0.0144,-9.5856,0.0208,-0.0586,-0.0293,23.78
50906501793400,120192,0.0538,-0.0084,-9.5821,0.0208,-0.0586,-0.0293,23.78
50906513271800,120204,0.0502,-0.0060,-9.5845,0.0208,-0.0586,-0.0293,23.77
50906524552100,120215,0.0502,-0.0060,-9.5833,0.0208,-0.0586,-0.0293,23.77
50906535881700,120226,0.0491,-0.0084,-9.5845,0.0208,-0.0599,-0.0293,23.78
50906546835100,120238,0.0574,-0.0132,-9.5892,0.0208,-0.0586,-0.0293,23.75
50906558468600,120249,0.0550,-0.0156,-9.5785,0.0208,-0.0586,-0.0293,23.75
50906569741600,120260,0.0431,-0.0156,-9.5773,0.0208,-0.0586,-0.0293,23.79
50906581070700,120271,0.0359,-0.0072,-9.5868,0.0195,-0.0586,-0.0293,23.79
50906592448400,120283,0.0419,-0.0072,-9.5880,0.0208,-0.0599,-0.0293,23.77
50906603875900,120294,0.0479,-0.0144,-9.5856,0.0208,-0.0586,-0.0293,23.77
50906614624300,120305,0.0443,-0.0132,-9.5880,0.0195,-0.0586,-0.0293,23.77
50906625818000,120317,0.0419,-0.0144,-9.5833,0.0208,-0.0586,-0.0293,23.76
50906637341500,120328,0.0467,-0.0167,-9.5868,0.0208,-0.0586,-0.0305,23.76
50906649091000,120340,0.0479,-0.0132,-9.5892,0.0208,-0.0586,-0.0293,23.78
50906660640600,120351,0.0491,-0.0084,-9.5868,0.0195,-0.0586,-0.0293,23.78
50906671680100,120362,0.0514,-0.0072,-9.5856,0.0208,-0.0586,-0.0293,23.79
50906683144900,120374,0.0502,-0.0108,-9.5845,0.0195,-0.0586,-0.0305,23.79
50906694438400,120385,0.0467,-0.0108,-9.5821,0.0195,-0.0586,-0.0305,23.77
50906706063700,120396,0.0502,-0.0156,-9.5821,0.0208,-0.0586,-0.0293,23.77
50906717212600,120408,0.0526,-0.0167,-9.5821,0.0208,-0.0586,-0.0293,23.79
50906728736700,120419,0.0455,-0.0167,-9.5785,0.0208,-0.0586,-0.0293,23.74
50906739944900,120430,0.0419,-0.0108,-9.5868,0.0208,-0.0586,-0.0305,23.74
50906751200700,120442,0.0491,-0.0084,-9.5940,0.0208,-0.0586,-0.0305,23.78
50906762731900,120453,0.0491,-0.0072,-9.5868,0.0208,-0.0586,-0.0293,23.78
50906774022000,120464,0.0431,-0.0060,-9.5856,0.0208,-0.0574,-0.0305,23.77
50906785233500,120476,0.0467,-0.0108,-9.5880,0.0208,-0.0574,-0.0305,23.77
50906796591000,120487,0.0562,-0.0096,-9.5892,0.0195,-0.0586,-0.0293,23.79
50906808039000,120498,0.0574,-0.0108,-9.5856,0.0208,-0.0586,-0.0305,23.80
50906819319200,120510,0.0467,-0.0096,-9.5845,0.0208,-0.0586,-0.0293,23.80
50906830685600,120521,0.0431,-0.0084,-9.5821,0.0195,-0.0586,-0.0293,23.78
50906842538200,120532,0.0514,-0.0132,-9.5845,0.0208,-0.0586,-0.0293,23.78
50906853332100,120544,0.0479,-0.0132,-9.5880,0.0208,-0.0586,-0.0293,23.76
50906864656600,120555,0.0431,-0.0108,-9.5809,0.0208,-0.0586,-0.0293,23.76
50906875853000,120566,0.0419,-0.0096,-9.5880,0.0208,-0.0586,-0.0293,23.81
50906887191400,120578,0.0383,-0.0108,-9.5833,0.0195,-0.0586,-0.0293,23.78
50906898547800,120589,0.0407,-0.0096,-9.5797,0.0195,-0.0586,-0.0293,23.78
50906910117800,120600,0.0407,-0.0096,-9.5856,0.0208,-0.0586,-0.0305,23.78
50906921295100,120612,0.0479,-0.0120,-9.5856,0.0208,-0.0586,-0.0293,23.78
50906932591400,120623,0.0514,-0.0108,-9.5880,0.0208,-0.0586,-0.0293,23.79
50906944039100,120634,0.0491,-0.0132,-9.5916,0.0208,-0.0586,-0.0293,23.79
50906955374900,120646,0.0467,-0.0096,-9.5892,0.0208,-0.0586,-0.0293,23.79
50906966612500,120657,0.0514,-0.0132,-9.5928,0.0195,-0.0586,-0.0293,23.77
50906977958000,120668,0.0479,-0.0132,-9.5892,0.0195,-0.0586,-0.0305,23.77
50906989267700,120680,0.0443,-0.0120,-9.5797,0.0208,-0.0586,-0.0293,23.76
50907000541500,120691,0.0407,-0.0084,-9.5773,0.0208,-0.0586,-0.0293,23.76
50907011806900,120702,0.0467,-0.0048,-9.5868,0.0208,-0.0586,-0.0305,23.77
50907023095000,120714,0.0562,-0.0072,-9.5916,0.0208,-0.0586,-0.0293,23.77
50907034495400,120725,0.0514,-0.0120,-9.5833,0.0208,-0.0586,-0.0305,23.79
50907045875400,120736,0.0443,-0.0108,-9.5904,0.0208,-0.0586,-0.0293,23.73
50907057084300,120748,0.0479,-0.0120,-9.5928,0.0195,-0.0586,-0.0305,23.73
50907068417600,120759,0.0538,-0.0132,-9.5868,0.0208,-0.0586,-0.0305,23.81
50907079887900,120770,0.0502,-0.0120,-9.5833,0.0208,-0.0574,-0.0305,23.81
50907091078800,120782,0.0467,-0.0120,-9.5833,0.0208,-0.0574,-0.0305,23.79
50907102394700,120793,0.0502,-0.0167,-9.5809,0.0208,-0.0586,-0.0293,23.79
50907113676000,120804,0.0526,-0.0167,-9.5845,0.0208,-0.0574,-0.0293,23.82
50907124989900,120816,0.0455,-0.0132,-9.5952,0.0208,-0.0586,-0.0293,23.82
50907136365300,120827,0.0443,-0.0084,-9.5809,0.0208,-0.0586,-0.0281,23.77
50907147664500,120838,0.0467,-0.0156,-9.5785,0.0208,-0.0586,-0.0293,23.80
50907159227800,120850,0.0479,-0.0179,-9.5833,0.0208,-0.0574,-0.0305,23.80
50907170341000,120861,0.0431,-0.0108,-9.5809,0.0208,-0.0586,-0.0305,23.81
50907181736900,120872,0.0502,-0.0048,-9.5845,0.0195,-0.0574,-0.0305,23.81
50907192924700,120883,0.0586,-0.0072,-9.5880,0.0195,-0.0574,-0.0293,23.76
50907204577100,120895,0.0538,-0.0036,-9.5809,0.0195,-0.0586,-0.0305,23.76
50907215782500,120906,0.0562,-0.0084,-9.5868,0.0208,-0.0586,-0.0305,23.83
50907227151600,120917,0.0514,-0.0072,-9.5821,0.0208,-0.0586,-0.0293,23.78
50907238751000,120929,0.0479,-0.0072,-9.5880,0.0208,-0.0586,-0.0293,23.78
50907249745900,120940,0.0443,-0.0120,-9.5904,0.0208,-0.0586,-0.0293,23.80
50907261049500,120951,0.0467,-0.0096,-9.5856,0.0208,-0.0586,-0.0293,23.80
50907272406700,120963,0.0479,-0.0084,-9.5868,0.0208,-0.0586,-0.0293,23.76
50907284008100,120974,0.0467,-0.0096,-9.5880,0.0208,-0.0574,-0.0293,23.76
50907295060400,120985,0.0491,-0.0096,-9.5892,0.0195,-0.0574,-0.0293,23.79
50907306379800,120997,0.0502,-0.0108,-9.5809,0.0195,-0.0586,-0.0293,23.77
50907317722700,121008,0.0479,-0.0108,-9.5904,0.0195,-0.0586,-0.0305,23.77
50907328975100,121019,0.0431,-0.0108,-9.5880,0.0195,-0.0586,-0.0305,23.79
50907340389300,121031,0.0431,-0.0108,-9.5868,0.0195,-0.0586,-0.0305,23.79
50907351774200,121042,0.0479,-0.0156,-9.5904,0.0195,-0.0586,-0.0305,23.76
50907363507200,121053,0.0550,-0.0156,-9.5868,0.0208,-0.0586,-0.0293,23.76
50907374847300,121065,0.0550,-0.0072,-9.5809,0.0195,-0.0586,-0.0293,23.80
50907385283000,121076,0.0431,-0.0108,-9.5904,0.0208,-0.0586,-0.0293,23.80
50907397390300,121087,0.0455,-0.0096,-9.5868,0.0208,-0.0586,-0.0293,23.75
50907408903800,121099,0.0502,-0.0108,-9.5797,0.0208,-0.0574,-0.0305,23.79
50907419912400,121110,0.0538,-0.0108,-9.5785,0.0208,-0.0574,-0.0293,23.79
50907431423400,121121,0.0550,-0.0108,-9.5856,0.0208,-0.0574,-0.0305,23.80
50907442298600,121133,0.0467,-0.0096,-9.5868,0.0195,-0.0574,-0.0305,23.80
50907453943900,121144,0.0431,-0.0084,-9.5833,0.0208,-0.0586,-0.0293,23.76
50907465232400,121155,0.0479,-0.0084,-9.5845,0.0208,-0.0574,-0.0293,23.76
50907476410900,121167,0.0550,-0.0084,-9.5821,0.0208,-0.0574,-0.0293,23.80
50907487752400,121178,0.0479,-0.0108,-9.5868,0.0208,-0.0586,-0.0293,23.83
50907499340500,121189,0.0443,-0.0084,-9.5892,0.0208,-0.0586,-0.0293,23.83
50907510533200,121201,0.0502,-0.0084,-9.5868,0.0208,-0.0586,-0.0293,23.77
50907521910700,121212,0.0526,-0.0120,-9.5845,0.0208,-0.0574,-0.0305,23.77
50907533278500,121223,0.0502,-0.0132,-9.5833,0.0195,-0.0586,-0.0293,23.79
50907544360300,121235,0.0467,-0.0096,-9.5892,0.0208,-0.0599,-0.0305,23.79
50907555874800,121246,0.0479,-0.0096,-9.5856,0.0208,-0.0586,-0.0293,23.80
50907567142300,121257,0.0467,-0.0108,-9.5868,0.0208,-0.0586,-0.0293,23.80
50907577883500,121269,0.0455,-0.0120,-9.5868,0.0195,-0.0586,-0.0293,23.80
50907589973400,121280,0.0502,-0.0108,-9.5821,0.0208,-0.0574,-0.0305,23.80
50907601341000,121291,0.0514,-0.0096,-9.5809,0.0208,-0.0574,-0.0305,23.80
50907612640300,121303,0.0491,-0.0096,-9.5892,0.0208,-0.0574,-0.0293,23.82
50907623874100,121314,0.0514,-0.0120,-9.5880,0.0208,-0.0574,-0.0305,23.82
50907635367200,121325,0.0514,-0.0132,-9.5785,0.0208,-0.0586,-0.0305,23.83
50907646295900,121337,0.0514,-0.0060,-9.5880,0.0195,-0.0586,-0.0293,23.80
50907657779400,121348,0.0491,-0.0024,-9.5797,0.0208,-0.0586,-0.0293,23.80
50907669006200,121359,0.0514,-0.0096,-9.5773,0.0208,-0.0586,-0.0293,23.84
50907680317100,121371,0.0538,-0.0132,-9.5821,0.0208,-0.0586,-0.0293,23.84
50907691647900,121382,0.0526,-0.0084,-9.5892,0.0208,-0.0586,-0.0293,23.81
50907703252100,121393,0.0479,-0.0060,-9.5892,0.0208,-0.0586,-0.0293,23.81
50907714610300,121405,0.0479,-0.0072,-9.5880,0.0208,-0.0574,-0.0293,23.79
50907725766300,121416,0.0514,-0.0144,-9.5880,0.0208,-0.0574,-0.0293,23.81
50907737153200,121428,0.0514,-0.0132,-9.5785,0.0208,-0.0586,-0.0293,23.81
50907748381700,121439,0.0502,-0.0096,-9.5809,0.0208,-0.0586,-0.0293,23.80
50907759700000,121450,0.0467,-0.0108,-9.5928,0.0208,-0.0586,-0.0281,23.80
50907771225400,121461,0.0467,-0.0108,-9.5928,0.0208,-0.0586,-0.0293,23.78
50907782627700,121473,0.0514,-0.0084,-9.5856,0.0208,-0.0586,-0.0293,23.78
50907793815200,121484,0.0550,-0.0048,-9.5845,0.0208,-0.0586,-0.0293,23.79
50907805126800,121496,0.0502,-0.0012,-9.5856,0.0208,-0.0586,-0.0293,23.79
50907816688100,121507,0.0479,-0.0048,-9.5856,0.0208,-0.0586,-0.0293,23.78
50907827789300,121518,0.0419,-0.0120,-9.5892,0.0208,-0.0586,-0.0293,23.80
50907839066900,121529,0.0443,-0.0167,-9.5904,0.0208,-0.0586,-0.0293,23.80
50907850749900,121541,0.0491,-0.0120,-9.5904,0.0208,-0.0586,-0.0305,23.84
50907861677400,121552,0.0479,-0.0108,-9.5868,0.0208,-0.0586,-0.0293,23.84
50907873026200,121563,0.0443,-0.0120,-9.5916,0.0208,-0.0586,-0.0293,23.80
50907884309000,121575,0.0467,-0.0108,-9.5892,0.0208,-0.0586,-0.0293,23.80
50907895865700,121586,0.0491,-0.0144,-9.5880,0.0208,-0.0586,-0.0293,23.82
50907907063300,121597,0.0491,-0.0096,-9.5928,0.0208,-0.0586,-0.0293,23.84
50907918349000,121609,0.0479,-0.0072,-9.5856,0.0208,-0.0574,-0.0293,23.84
50907929220200,121620,0.0479,-0.0132,-9.5749,0.0208,-0.0574,-0.0293,23.82
50907941192600,121631,0.0479,-0.0120,-9.5845,0.0208,-0.0574,-0.0305,23.82
50907952441600,121643,0.0550,-0.0048,-9.5845,0.0208,-0.0586,-0.0305,23.80
50907963901000,121654,0.0598,-0.0024,-9.5797,0.0208,-0.0574,-0.0293,23.80
50907975220200,121665,0.0467,-0.0060,-9.5880,0.0208,-0.0574,-0.0305,23.82
50907986343000,121677,0.0443,-0.0120,-9.5809,0.0195,-0.0586,-0.0293,23.80
50907997312700,121688,0.0443,-0.0096,-9.5880,0.0208,-0.0574,-0.0293,23.80
50908009054300,121699,0.0455,-0.0120,-9.5916,0.0208,-0.0574,-0.0293,23.76
50908020359000,121711,0.0431,-0.0167,-9.5880,0.0195,-0.0574,-0.0293,23.76
50908031636300,121722,0.0395,-0.0108,-9.5821,0.0195,-0.0586,-0.0293,23.78
50908043164100,121733,0.0467,-0.0072,-9.5868,0.0208,-0.0586,-0.0293,23.78
50908054374300,121745,0.0538,-0.0048,-9.5880,0.0208,-0.0574,-0.0305,23.82
50908065542700,121756,0.0526,-0.0120,-9.5845,0.0208,-0.0586,-0.0293,23.82
50908077170200,121767,0.0491,-0.0132,-9.5868,0.0208,-0.0586,-0.0293,23.82
50908088446100,121779,0.0538,-0.0144,-9.5868,0.0208,-0.0586,-0.0305,23.82
50908099726000,121790,0.0514,-0.0132,-9.5892,0.0208,-0.0586,-0.0293,23.82
50908111387000,121801,0.0479,-0.0120,-9.5856,0.0208,-0.0574,-0.0293,23.80
50908122372700,121813,0.0407,-0.0096,-9.5797,0.0195,-0.0586,-0.0293,23.80
50908133017400,121824,0.0419,-0.0096,-9.5761,0.0195,-0.0586,-0.0293,23.79
50908144932500,121836,0.0455,-0.0144,-9.5916,0.0195,-0.0586,-0.0293,23.79
50908156179200,121847,0.0431,-0.0084,-9.5845,0.0195,-0.0586,-0.0293,23.80
50908167617300,121858,0.0419,-0.0072,-9.5856,0.0195,-0.0586,-0.0305,23.85
50908179019200,121870,0.0479,-0.0132,-9.5856,0.0195,-0.0574,-0.0305,23.85
50908190284600,121881,0.0455,-0.0120,-9.5856,0.0208,-0.0586,-0.0293,23.81
50908201743800,121892,0.0431,-0.0084,-9.5809,0.0208,-0.0586,-0.0293,23.81
50908212980700,121903,0.0407,-0.0072,-9.5833,0.0208,-0.0586,-0.0305,23.78
50908224247300,121915,0.0431,-0.0096,-9.5845,0.0208,-0.0586,-0.0293,23.78
50908235538100,121926,0.0514,-0.0096,-9.5892,0.0208,-0.0586,-0.0293,23.82
50908246855900,121937,0.0467,-0.0144,-9.5940,0.0208,-0.0586,-0.0293,23.78
50908258119300,121949,0.0502,-0.0156,-9.5833,0.0208,-0.0586,-0.0293,23.78
50908269451900,121960,0.0562,-0.0072,-9.5821,0.0220,-0.0599,-0.0293,23.82
50908280916800,121971,0.0550,-0.0036,-9.5880,0.0208,-0.0599,-0.0293,23.82
50908292255100,121983,0.0479,-0.0060,-9.5833,0.0208,-0.0586,-0.0293,23.82
50908303727600,121994,0.0443,-0.0072,-9.5845,0.0208,-0.0599,-0.0293,23.82
50908314809600,122005,0.0550,-0.0096,-9.5904,0.0208,-0.0574,-0.0293,23.83
50908327032800,122017,0.0538,-0.0132,-9.5833,0.0208,-0.0586,-0.0305,23.79
50908337977300,122028,0.0491,-0.0144,-9.5809,0.0208,-0.0574,-0.0305,23.79
50908349366900,122039,0.0467,-0.0120,-9.5821,0.0208,-0.0586,-0.0305,23.82
50908360433900,122051,0.0479,-0.0132,-9.5916,0.0195,-0.0574,-0.0293,23.82
50908371843100,122062,0.0550,-0.0120,-9.5952,0.0195,-0.0574,-0.0293,23.81
50908383148100,122073,0.0562,-0.0084,-9.5928,0.0208,-0.0586,-0.0293,23.81
50908394476700,122085,0.0491,-0.0096,-9.5904,0.0208,-0.0586,-0.0293,23.84
50908405045800,122096,0.0479,-0.0108,-9.5845,0.0208,-0.0586,-0.0293,23.82
50908416430100,122107,0.0491,-0.0108,-9.5821,0.0208,-0.0599,-0.0293,23.82
50908428000900,122119,0.0443,-0.0096,-9.5797,0.0208,-0.0586,-0.0293,23.79
50908439908100,122130,0.0395,-0.0084,-9.5833,0.0208,-0.0586,-0.0305,23.79
50908451278400,122141,0.0455,-0.0096,-9.5856,0.0195,-0.0586,-0.0305,23.80
50908462410000,122153,0.0514,-0.0108,-9.5845,0.0208,-0.0586,-0.0293,23.80
50908473796400,122164,0.0479,-0.0084,-9.5833,0.0208,-0.0574,-0.0293,23.83
50908485096200,122175,0.0502,-0.0072,-9.5833,0.0208,-0.0574,-0.0305,23.83
50908495919400,122187,0.0502,-0.0120,-9.5904,0.0208,-0.0586,-0.0293,23.82
50908507673200,122198,0.0491,-0.0167,-9.5916,0.0208,-0.0586,-0.0293,23.82
50908518947300,122209,0.0479,-0.0144,-9.5845,0.0208,-0.0586,-0.0305,23.82
50908530327500,122221,0.0443,-0.0096,-9.5809,0.0195,-0.0586,-0.0293,23.80
50908541535000,122232,0.0467,-0.0108,-9.5880,0.0195,-0.0586,-0.0293,23.80
50908552961000,122243,0.0538,-0.0156,-9.5868,0.0208,-0.0586,-0.0293,23.82
50908564288300,122255,0.0526,-0.0156,-9.5833,0.0208,-0.0586,-0.0293,23.82
50908575373400,122266,0.0538,-0.0108,-9.5880,0.0208,-0.0586,-0.0293,23.80
50908586989100,122277,0.0526,-0.0084,-9.5868,0.0195,-0.0586,-0.0293,23.80
50908598441700,122289,0.0467,-0.0072,-9.5785,0.0195,-0.0586,-0.0293,23.80
50908609461300,122300,0.0443,-0.0036,-9.5856,0.0208,-0.0586,-0.0293,23.78
50908620575600,122311,0.0455,-0.0048,-9.5940,0.0208,-0.0586,-0.0293,23.78
50908632552300,122323,0.0514,-0.0120,-9.5892,0.0208,-0.0586,-0.0293,23.79
50908643715600,122334,0.0550,-0.0144,-9.5892,0.0208,-0.0586,-0.0293,23.79
50908654982700,122345,0.0491,-0.0120,-9.5880,0.0208,-0.0586,-0.0293,23.81
50908666335400,122356,0.0359,-0.0012,-9.5773,0.0195,-0.0586,-0.0293,23.82
50908677597500,122368,0.0395,-0.0048,-9.5821,0.0208,-0.0574,-0.0305,23.82
50908689019800,122379,0.0455,-0.0096,-9.5892,0.0208,-0.0586,-0.0305,23.82
50908700043300,122390,0.0419,-0.0132,-9.5868,0.0208,-0.0574,-0.0293,23.82
50908711514900,122402,0.0431,-0.0120,-9.5797,0.0195,-0.0586,-0.0293,23.80
50908722664600,122413,0.0514,-0.0120,-9.5856,0.0208,-0.0586,-0.0293,23.80
50908734291300,122424,0.0562,-0.0156,-9.5928,0.0208,-0.0586,-0.0293,23.86
50908745440100,122436,0.0502,-0.0060,-9.5809,0.0208,-0.0586,-0.0293,23.80
50908756579200,122447,0.0514,0.0024,-9.5952,0.0208,-0.0586,-0.0293,23.80
50908768042400,122458,0.0526,0.0012,-9.5928,0.0195,-0.0586,-0.0293,23.87
50908779338200,122470,0.0526,-0.0084,-9.5833,0.0195,-0.0586,-0.0293,23.87
50908790517500,122481,0.0514,-0.0120,-9.5821,0.0208,-0.0586,-0.0293,23.79
50908801848400,122492,0.0491,-0.0120,-9.5868,0.0208,-0.0586,-0.0293,23.79
50908813218400,122504,0.0502,-0.0120,-9.5904,0.0208,-0.0586,-0.0293,23.84
50908824953400,122515,0.0538,-0.0084,-9.5868,0.0208,-0.0586,-0.0293,23.84
50908835815000,122526,0.0455,-0.0120,-9.5916,0.0208,-0.0586,-0.0293,23.79
50908847154600,122538,0.0479,-0.0144,-9.5892,0.0208,-0.0586,-0.0293,23.86
50908858415300,122549,0.0538,-0.0144,-9.5833,0.0208,-0.0586,-0.0293,23.86
50908869731000,122560,0.0491,-0.0132,-9.5845,0.0208,-0.0586,-0.0293,23.82
50908881041800,122572,0.0455,-0.0096,-9.5856,0.0208,-0.0586,-0.0293,23.82
50908892704700,122583,0.0443,-0.0084,-9.5833,0.0208,-0.0586,-0.0293,23.82
50908903646000,122594,0.0514,-0.0072,-9.5833,0.0208,-0.0586,-0.0293,23.82
50908915061800,122606,0.0467,-0.0132,-9.5797,0.0208,-0.0586,-0.0305,23.83
50908926547700,122617,0.0443,-0.0108,-9.5773,0.0208,-0.0599,-0.0293,23.80
50908937673100,122628,0.0502,-0.0144,-9.5904,0.0208,-0.0586,-0.0293,23.80
50908948944400,122640,0.0514,-0.0167,-9.5833,0.0208,-0.0586,-0.0293,23.83
50908960252500,122651,0.0407,-0.0156,-9.5737,0.0195,-0.0586,-0.0305,23.83
50908971661400,122662,0.0407,-0.0144,-9.5892,0.0195,-0.0599,-0.0293,23.84
50908983120100,122674,0.0491,-0.0167,-9.5916,0.0195,-0.0599,-0.0293,23.84
50908994408500,122685,0.0502,-0.0167,-9.5773,0.0195,-0.0599,-0.0293,23.81
50909005721000,122696,0.0479,-0.0084,-9.5904,0.0195,-0.0574,-0.0305,23.84
50909017101800,122708,0.0491,-0.0096,-9.5833,0.0195,-0.0574,-0.0293,23.84
50909028539600,122719,0.0526,-0.0096,-9.5821,0.0195,-0.0574,-0.0293,23.81
50909039810300,122730,0.0562,-0.0084,-9.5856,0.0208,-0.0574,-0.0293,23.81
50909050986400,122742,0.0526,-0.0084,-9.5904,0.0195,-0.0586,-0.0305,23.80
50909062555900,122753,0.0455,-0.0060,-9.5845,0.0195,-0.0574,-0.0293,23.80
50909073877200,122764,0.0479,-0.0060,-9.5833,0.0208,-0.0586,-0.0305,23.78
50909085301900,122776,0.0419,-0.0120,-9.5785,0.0195,-0.0586,-0.0305,23.83
50909096886500,122787,0.0443,-0.0072,-9.5856,0.0195,-0.0586,-0.0293,23.83
50909107955600,122798,0.0431,-0.0072,-9.5916,0.0195,-0.0574,-0.0293,23.77
50909119107100,122810,0.0419,-0.0120,-9.5845,0.0208,-0.0586,-0.0305,23.77
50909130569700,122821,0.0443,-0.0144,-9.5833,0.0208,-0.0574,-0.0305,23.82
50909141772300,122832,0.0431,-0.0096,-9.5928,0.0208,-0.0586,-0.0293,23.82
50909152981500,122844,0.0443,-0.0072,-9.5845,0.0208,-0.0586,-0.0293,23.86
50909164313600,122855,0.0443,-0.0072,-9.5785,0.0208,-0.0586,-0.0293,23.86
50909175748600,122866,0.0550,-0.0132,-9.5833,0.0208,-0.0586,-0.0293,23.85
50909187142700,122878,0.0502,-0.0179,-9.5725,0.0208,-0.0599,-0.0293,23.83
50909198421500,122889,0.0526,-0.0167,-9.5880,0.0208,-0.0586,-0.0305,23.83
50909209912400,122900,0.0526,-0.0084,-9.5845,0.0195,-0.0586,-0.0293,23.83
50909221194600,122912,0.0467,-0.0120,-9.5761,0.0208,-0.0586,-0.0293,23.83
50909231931800,122923,0.0467,-0.0167,-9.5904,0.0208,-0.0586,-0.0305,23.82
50909243204900,122934,0.0479,-0.0132,-9.5916,0.0195,-0.0574,-0.0305,23.82
50909255157700,122946,0.0502,-0.0096,-9.5821,0.0208,-0.0574,-0.0293,23.84
50909266513900,122957,0.0502,-0.0108,-9.5904,0.0195,-0.0586,-0.0293,23.85
50909277738200,122968,0.0467,-0.0120,-9.5773,0.0208,-0.0586,-0.0293,23.85
50909289173800,122980,0.0419,-0.0144,-9.5737,0.0208,-0.0599,-0.0293,23.86
50909300637800,122991,0.0443,-0.0144,-9.5952,0.0208,-0.0586,-0.0293,23.86
50909311784700,123002,0.0479,-0.0108,-9.5988,0.0208,-0.0586,-0.0293,23.82
50909323034200,123014,0.0491,-0.0108,-9.5809,0.0220,-0.0586,-0.0293,23.82
50909334389800,123025,0.0467,-0.0096,-9.5856,0.0208,-0.0586,-0.0305,23.84
50909345632400,123036,0.0526,-0.0096,-9.5761,0.0208,-0.0574,-0.0293,23.80
50909357247100,123047,0.0538,-0.0120,-9.5868,0.0208,-0.0586,-0.0293,23.80
50909368529600,123059,0.0502,-0.0084,-9.5856,0.0195,-0.0586,-0.0293,23.82
50909379748700,123070,0.0443,-0.0072,-9.5833,0.0208,-0.0574,-0.0293,23.82
50909390656400,123082,0.0467,-0.0096,-9.5821,0.0195,-0.0586,-0.0293,23.82
50909402565400,123093,0.0479,-0.0108,-9.5785,0.0208,-0.0586,-0.0293,23.82
50909414084000,123104,0.0514,-0.0120,-9.5845,0.0208,-0.0586,-0.0305,23.84
50909425467500,123116,0.0502,-0.0167,-9.5809,0.0195,-0.0586,-0.0293,23.83
50909436811300,123127,0.0502,-0.0132,-9.5856,0.0208,-0.0586,-0.0293,23.83
50909448525800,123138,0.0526,-0.0120,-9.5928,0.0208,-0.0586,-0.0293,23.82
50909459015700,123150,0.0502,-0.0108,-9.5856,0.0208,-0.0586,-0.0293,23.82
50909470764000,123161,0.0514,-0.0132,-9.5773,0.0208,-0.0586,-0.0305,23.81
50909482137400,123172,0.0538,-0.0132,-9.5856,0.0208,-0.0586,-0.0293,23.81
50909493121800,123184,0.0574,-0.0132,-9.5868,0.0195,-0.0586,-0.0305,23.81
50909504577300,123195,0.0479,-0.0120,-9.5845,0.0208,-0.0586,-0.0305,23.81
50909515858300,123206,0.0455,-0.0108,-9.5904,0.0208,-0.0586,-0.0293,23.83
50909527081800,123217,0.0538,-0.0120,-9.5916,0.0208,-0.0574,-0.0305,23.80
50909538160600,123229,0.0550,-0.0108,-9.5880,0.0208,-0.0574,-0.0305,23.80
50909549643000,123240,0.0514,-0.0084,-9.5833,0.0208,-0.0586,-0.0305,23.82
50909561098600,123251,0.0502,-0.0036,-9.5761,0.0208,-0.0586,-0.0293,23.82
50909572462900,123263,0.0467,-0.0060,-9.5845,0.0208,-0.0586,-0.0305,23.84
50909583713600,123274,0.0467,-0.0132,-9.5892,0.0208,-0.0586,-0.0293,23.84
50909595176700,123285,0.0455,-0.0120,-9.5880,0.0208,-0.0586,-0.0305,23.86
50909606572800,123297,0.0431,-0.0108,-9.5856,0.0208,-0.0586,-0.0293,23.86
50909617280900,123308,0.0443,-0.0132,-9.5856,0.0208,-0.0586,-0.0293,23.86
50909629183400,123319,0.0455,-0.0132,-9.5940,0.0208,-0.0574,-0.0293,23.88
50909640437400,123331,0.0467,-0.0060,-9.5988,0.0208,-0.0574,-0.0305,23.88
50909651741400,123342,0.0491,-0.0096,-9.5916,0.0208,-0.0586,-0.0293,23.85
50909663049500,123353,0.0467,-0.0120,-9.5856,0.0208,-0.0586,-0.0293,23.85
50909674582000,123365,0.0419,-0.0120,-9.5868,0.0208,-0.0586,-0.0305,23.85
50909685834900,123376,0.0514,-0.0120,-9.5904,0.0208,-0.0586,-0.0293,23.84
50909697000500,123387,0.0550,-0.0144,-9.5833,0.0208,-0.0574,-0.0293,23.84
50909708707400,123399,0.0562,-0.0144,-9.5856,0.0195,-0.0586,-0.0293,23.86
50909719908800,123410,0.0538,-0.0120,-9.5880,0.0208,-0.0586,-0.0293,23.86
50909730341700,123421,0.0514,-0.0108,-9.5833,0.0208,-0.0586,-0.0293,23.82
50909742294800,123433,0.0526,-0.0096,-9.5916,0.0208,-0.0586,-0.0293,23.82
50909753590800,123444,0.0526,-0.0084,-9.5856,0.0208,-0.0574,-0.0305,23.84
50909764811900,123455,0.0467,-0.0108,-9.5833,0.0208,-0.0574,-0.0305,23.86
50909776089300,123467,0.0502,-0.0072,-9.5880,0.0208,-0.0586,-0.0293,23.86
50909787456000,123478,0.0467,-0.0060,-9.5773,0.0208,-0.0586,-0.0293,23.85
50909798734200,123489,0.0467,-0.0084,-9.5868,0.0208,-0.0574,-0.0293,23.85
50909810185800,123501,0.0467,-0.0132,-9.5940,0.0208,-0.0586,-0.0293,23.84
50909821515400,123512,0.0479,-0.0096,-9.5880,0.0208,-0.0586,-0.0293,23.84
50909832590500,123523,0.0502,-0.0024,-9.5845,0.0208,-0.0574,-0.0305,23.82
50909844175500,123535,0.0538,-0.0060,-9.5880,0.0195,-0.0586,-0.0305,23.82
50909855834700,123546,0.0550,-0.0084,-9.5821,0.0208,-0.0586,-0.0293,23.87
50909866909000,123557,0.0491,-0.0096,-9.5880,0.0208,-0.0586,-0.0293,23.85
50909878204600,123569,0.0467,-0.0132,-9.5797,0.0208,-0.0586,-0.0293,23.85
50909889574300,123580,0.0526,-0.0144,-9.5845,0.0208,-0.0599,-0.0293,23.86
50909900751700,123591,0.0514,-0.0132,-9.5880,0.0208,-0.0586,-0.0293,23.86
50909912094900,123603,0.0502,-0.0144,-9.5773,0.0208,-0.0586,-0.0305,23.82
50909923465600,123614,0.0479,-0.0156,-9.5868,0.0195,-0.0586,-0.0293,23.82
50909934872900,123625,0.0479,-0.0096,-9.5833,0.0208,-0.0586,-0.0293,23.82
50909946426500,123636,0.0467,-0.0096,-9.5773,0.0208,-0.0586,-0.0293,23.86
50909957554200,123648,0.0395,-0.0132,-9.5928,0.0208,-0.0586,-0.0305,23.86
50909968797100,123659,0.0431,-0.0132,-9.5892,0.0208,-0.0586,-0.0293,23.86
50909980114500,123671,0.0491,-0.0084,-9.5725,0.0208,-0.0586,-0.0293,23.86
50909991482500,123682,0.0502,-0.0072,-9.5868,0.0208,-0.0586,-0.0293,23.84
50910002696300,123693,0.0491,-0.0108,-9.5976,0.0208,-0.0586,-0.0293,23.84
50910014259500,123705,0.0467,-0.0167,-9.5785,0.0208,-0.0586,-0.0281,23.88
50910025424000,123716,0.0538,-0.0036,-9.5964,0.0208,-0.0586,-0.0293,23.85
50910036746900,123727,0.0467,-0.0060,-9.5928,0.0208,-0.0586,-0.0293,23.85
50910048116300,123739,0.0455,-0.0072,-9.5809,0.0208,-0.0586,-0.0293,23.87
50910059464300,123750,0.0467,-0.0084,-9.5916,0.0208,-0.0586,-0.0293,23.87
50910070802400,123761,0.0443,-0.0144,-9.5892,0.0208,-0.0586,-0.0293,23.85
50910082133300,123773,0.0419,-0.0120,-9.5761,0.0195,-0.0586,-0.0293,23.85
50910093446100,123784,0.0395,-0.0072,-9.5845,0.0208,-0.0586,-0.0293,23.84
50910104835800,123795,0.0491,-0.0072,-9.5868,0.0195,-0.0586,-0.0293,23.86
50910116125300,123807,0.0502,-0.0096,-9.5845,0.0208,-0.0586,-0.0293,23.86
50910127394100,123818,0.0479,-0.0120,-9.5880,0.0208,-0.0586,-0.0293,23.87
50910138764700,123829,0.0479,-0.0108,-9.5880,0.0208,-0.0586,-0.0293,23.87
50910150233600,123841,0.0502,-0.0096,-9.5821,0.0208,-0.0586,-0.0293,23.80
50910161440500,123852,0.0586,-0.0108,-9.5880,0.0208,-0.0574,-0.0293,23.80
50910172813500,123863,0.0562,-0.0072,-9.5916,0.0195,-0.0586,-0.0293,23.83
50910184049400,123875,0.0479,-0.0120,-9.5797,0.0195,-0.0586,-0.0293,23.83
50910195376000,123886,0.0538,-0.0167,-9.5904,0.0208,-0.0574,-0.0293,23.88
50910206650800,123897,0.0598,-0.0108,-9.5904,0.0208,-0.0586,-0.0293,23.86
50910217985900,123909,0.0538,-0.0060,-9.5821,0.0208,-0.0586,-0.0305,23.86
50910229358400,123920,0.0443,-0.0036,-9.5868,0.0195,-0.0586,-0.0293,23.88
50910240644700,123931,0.0431,-0.0036,-9.5916,0.0208,-0.0586,-0.0293,23.88
50910251948200,123943,0.0491,-0.0084,-9.5904,0.0208,-0.0586,-0.0293,23.86
50910263228600,123954,0.0491,-0.0132,-9.5904,0.0208,-0.0586,-0.0305,23.86
50910274704400,123965,0.0491,-0.0120,-9.5845,0.0195,-0.0574,-0.0293,23.82
50910286134000,123977,0.0491,-0.0132,-9.5856,0.0208,-0.0586,-0.0293,23.86
50910297306600,123988,0.0467,-0.0144,-9.5856,0.0208,-0.0586,-0.0305,23.86
50910308615900,123999,0.0467,-0.0120,-9.5833,0.0208,-0.0586,-0.0305,23.88
50910319980600,124011,0.0467,-0.0096,-9.5868,0.0208,-0.0574,-0.0293,23.88
50910331299100,124022,0.0467,-0.0132,-9.5856,0.0208,-0.0586,-0.0293,23.87
50910342724100,124033,0.0479,-0.0132,-9.5845,0.0208,-0.0586,-0.0293,23.87
50910354073700,124045,0.0491,-0.0120,-9.5904,0.0208,-0.0586,-0.0293,23.87
50910365235400,124056,0.0514,-0.0108,-9.5845,0.0195,-0.0586,-0.0293,23.86
50910376222700,124067,0.0479,-0.0096,-9.5868,0.0208,-0.0586,-0.0305,23.86
50910387510500,124079,0.0467,-0.0096,-9.5916,0.0208,-0.0586,-0.0293,23.85
50910398960700,124090,0.0479,-0.0120,-9.5868,0.0208,-0.0586,-0.0305,23.85
50910410268600,124101,0.0514,-0.0144,-9.5868,0.0208,-0.0586,-0.0305,23.88
50910421431100,124113,0.0526,-0.0132,-9.5916,0.0208,-0.0586,-0.0293,23.88
50910432793900,124124,0.0526,-0.0084,-9.5833,0.0208,-0.0586,-0.0293,23.84
50910444223300,124135,0.0550,-0.0084,-9.5892,0.0208,-0.0599,-0.0293,23.89
50910455703000,124147,0.0502,-0.0144,-9.5928,0.0208,-0.0599,-0.0305,23.89
50910466994400,124158,0.0491,-0.0120,-9.5856,0.0208,-0.0586,-0.0293,23.87
50910478308500,124169,0.0455,-0.0036,-9.5892,0.0208,-0.0586,-0.0293,23.87
50910489829600,124181,0.0514,-0.0072,-9.5928,0.0208,-0.0586,-0.0293,23.84
50910500448900,124192,0.0514,-0.0120,-9.5868,0.0195,-0.0586,-0.0293,23.84
50910512404000,124203,0.0491,-0.0084,-9.5868,0.0208,-0.0586,-0.0293,23.89
50910523837900,124215,0.0467,-0.0048,-9.5856,0.0208,-0.0586,-0.0293,23.86
50910535113700,124226,0.0491,-0.0096,-9.5833,0.0208,-0.0586,-0.0293,23.86
50910546457300,124237,0.0455,-0.0060,-9.5833,0.0208,-0.0586,-0.0305,23.87
50910557726400,124249,0.0431,-0.0072,-9.5845,0.0208,-0.0586,-0.0305,23.87
50910569149300,124260,0.0479,-0.0108,-9.5856,0.0208,-0.0586,-0.0293,23.86
50910580413000,124271,0.0467,-0.0096,-9.5880,0.0208,-0.0586,-0.0293,23.86
50910591114600,124283,0.0431,-0.0120,-9.5916,0.0208,-0.0586,-0.0305,23.83
50910602855500,124294,0.0431,-0.0108,-9.5868,0.0208,-0.0574,-0.0305,23.83
50910614294800,124305,0.0538,-0.0072,-9.5845,0.0208,-0.0574,-0.0305,23.87
50910625684800,124317,0.0502,-0.0120,-9.5833,0.0208,-0.0586,-0.0293,23.90
50910636987100,124328,0.0491,-0.0096,-9.5845,0.0208,-0.0586,-0.0293,23.90
50910648296300,124339,0.0491,-0.0060,-9.5856,0.0208,-0.0586,-0.0293,23.84
50910659730500,124351,0.0526,-0.0084,-9.5880,0.0208,-0.0586,-0.0293,23.84
50910670955900,124362,0.0574,-0.0120,-9.5868,0.0208,-0.0586,-0.0293,23.84
50910682314700,124373,0.0514,-0.0108,-9.5868,0.0208,-0.0599,-0.0293,23.84
50910693663200,124385,0.0514,-0.0215,-9.5880,0.0208,-0.0586,-0.0293,23.89
50910704965300,124396,0.0514,-0.0191,-9.5916,0.0208,-0.0586,-0.0293,23.89
50910716527900,124407,0.0455,-0.0167,-9.5833,0.0208,-0.0586,-0.0293,23.89
50910727823100,124419,0.0443,-0.0156,-9.5821,0.0208,-0.0574,-0.0293,23.86
50910739057700,124430,0.0455,-0.0072,-9.5940,0.0208,-0.0586,-0.0293,23.86
50910750404300,124441,0.0467,-0.0060,-9.5904,0.0195,-0.0586,-0.0293,23.91
50910761647100,124453,0.0502,-0.0084,-9.5856,0.0195,-0.0586,-0.0293,23.91
50910773030400,124464,0.0514,-0.0072,-9.5904,0.0208,-0.0586,-0.0293,23.87
50910784376800,124475,0.0491,-0.0096,-9.5821,0.0208,-0.0574,-0.0305,23.88
50910795268700,124487,0.0467,-0.0132,-9.5892,0.0208,-0.0574,-0.0305,23.88
50910806953200,124498,0.0514,-0.0132,-9.5916,0.0208,-0.0574,-0.0305,23.88
50910818257200,124509,0.0467,-0.0096,-9.5833,0.0195,-0.0574,-0.0305,23.88
50910829546100,124521,0.0455,-0.0084,-9.5892,0.0195,-0.0574,-0.0305,23.90
50910840860800,124532,0.0479,-0.0084,-9.5940,0.0195,-0.0574,-0.0293,23.90
50910852481800,124543,0.0419,-0.0096,-9.5797,0.0208,-0.0586,-0.0281,23.90
50910863625800,124555,0.0526,-0.0156,-9.5940,0.0208,-0.0586,-0.0305,23.86
50910874928600,124566,0.0491,-0.0108,-9.5892,0.0208,-0.0586,-0.0293,23.86
50910886267300,124577,0.0455,-0.0084,-9.5773,0.0208,-0.0574,-0.0293,23.84
50910897621600,124589,0.0491,-0.0084,-9.5868,0.0208,-0.0574,-0.0305,23.84
50910908915200,124600,0.0491,-0.0060,-9.5952,0.0208,-0.0586,-0.0293,23.88
50910920282900,124611,0.0479,-0.0084,-9.5821,0.0208,-0.0574,-0.0293,23.88
50910931508500,124623,0.0538,-0.0108,-9.5833,0.0208,-0.0574,-0.0293,23.88
50910942910300,124634,0.0538,-0.0108,-9.5916,0.0208,-0.0586,-0.0293,23.88
50910954259500,124645,0.0526,-0.0108,-9.5833,0.0208,-0.0574,-0.0293,23.87
50910965556400,124657,0.0502,-0.0144,-9.5940,0.0208,-0.0586,-0.0305,23.84
50910976834900,124668,0.0491,-0.0108,-9.5880,0.0208,-0.0599,-0.0293,23.84
50910988216000,124679,0.0419,-0.0096,-9.5809,0.0208,-0.0599,-0.0293,23.88
50910999488200,124691,0.0407,-0.0108,-9.5880,0.0208,-0.0586,-0.0293,23.88
50911010823600,124702,0.0502,-0.0060,-9.5928,0.0195,-0.0586,-0.0293,23.86
50911022155900,124713,0.0491,-0.0048,-9.5880,0.0208,-0.0586,-0.0293,23.86
50911033534600,124725,0.0467,-0.0108,-9.5845,0.0208,-0.0586,-0.0293,23.89
50911044658000,124736,0.0479,-0.0108,-9.5928,0.0208,-0.0599,-0.0293,23.85
50911056227300,124747,0.0491,-0.0108,-9.5856,0.0208,-0.0599,-0.0293,23.85
50911067541400,124759,0.0550,-0.0096,-9.5868,0.0208,-0.0586,-0.0293,23.86
50911078819400,124770,0.0610,-0.0108,-9.5892,0.0208,-0.0586,-0.0293,23.86
50911090156400,124781,0.0538,-0.0072,-9.5856,0.0208,-0.0586,-0.0293,23.88
50911101528300,124793,0.0514,-0.0072,-9.5916,0.0208,-0.0586,-0.0293,23.88
50911112931200,124804,0.0526,-0.0108,-9.5964,0.0208,-0.0586,-0.0305,23.90
50911124198900,124815,0.0526,-0.0156,-9.5785,0.0208,-0.0574,-0.0281,23.89
50911135451700,124827,0.0502,-0.0096,-9.5868,0.0208,-0.0586,-0.0293,23.89
50911146816800,124838,0.0455,-0.0096,-9.5904,0.0208,-0.0586,-0.0293,23.89
50911158082500,124849,0.0443,-0.0132,-9.5880,0.0208,-0.0574,-0.0293,23.89
50911169370000,124861,0.0502,-0.0120,-9.5880,0.0195,-0.0574,-0.0305,23.89
50911180735600,124872,0.0538,-0.0096,-9.5880,0.0195,-0.0586,-0.0293,23.89
50911192550100,124883,0.0514,-0.0108,-9.5785,0.0208,-0.0599,-0.0293,23.87
50911203040000,124894,0.0467,-0.0144,-9.5952,0.0208,-0.0586,-0.0293,23.86
50911214775800,124906,0.0455,-0.0108,-9.5880,0.0208,-0.0586,-0.0293,23.86
50911226012700,124917,0.0586,-0.0072,-9.5833,0.0208,-0.0586,-0.0293,23.89
50911237345400,124928,0.0610,-0.0072,-9.5868,0.0208,-0.0599,-0.0305,23.89
50911248767500,124940,0.0526,-0.0108,-9.5880,0.0208,-0.0586,-0.0293,23.88
50911260014100,124951,0.0491,-0.0060,-9.5868,0.0208,-0.0599,-0.0293,23.88
50911271348400,124962,0.0491,-0.0048,-9.5856,0.0208,-0.0599,-0.0293,23.88
50911282777800,124974,0.0502,-0.0084,-9.5821,0.0208,-0.0586,-0.0293,23.88
50911294029000,124985,0.0491,-0.0120,-9.5845,0.0195,-0.0574,-0.0305,23.87
50911305358100,124996,0.0479,-0.0084,-9.5856,0.0208,-0.0586,-0.0305,23.86
50911316824800,125008,0.0491,-0.0108,-9.5856,0.0208,-0.0586,-0.0293,23.86
50911328100600,125019,0.0550,-0.0120,-9.5868,0.0208,-0.0586,-0.0293,23.86
50911339488500,125030,0.0538,-0.0096,-9.5964,0.0208,-0.0586,-0.0293,23.86
50911350724400,125042,0.0431,-0.0132,-9.5904,0.0208,-0.0586,-0.0305,23.84
50911361964500,125053,0.0443,-0.0156,-9.5833,0.0208,-0.0586,-0.0305,23.84
50911373180200,125064,0.0514,-0.0167,-9.5797,0.0208,-0.0574,-0.0293,23.88
50911384741300,125076,0.0502,-0.0144,-9.5821,0.0208,-0.0574,-0.0293,23.91
50911395929300,125087,0.0431,-0.0108,-9.5868,0.0208,-0.0586,-0.0305,23.91
50911407248200,125098,0.0443,-0.0120,-9.5761,0.0208,-0.0586,-0.0293,23.84
50911418459600,125110,0.0479,-0.0144,-9.5749,0.0208,-0.0586,-0.0293,23.84
50911429846000,125121,0.0491,-0.0132,-9.5940,0.0208,-0.0586,-0.0305,23.88
50911441165500,125132,0.0443,-0.0060,-9.5928,0.0195,-0.0586,-0.0293,23.88
50911452491900,125144,0.0419,-0.0060,-9.5749,0.0195,-0.0574,-0.0305,23.89
50911463786400,125155,0.0491,-0.0108,-9.5928,0.0208,-0.0586,-0.0293,23.88
50911475153700,125166,0.0526,-0.0120,-9.5749,0.0208,-0.0586,-0.0293,23.88
50911486483800,125178,0.0502,-0.0096,-9.5797,0.0220,-0.0586,-0.0305,23.84
50911497716200,125189,0.0526,-0.0048,-9.6000,0.0208,-0.0574,-0.0293,23.84
50911509222800,125200,0.0526,-0.0060,-9.5904,0.0195,-0.0574,-0.0305,23.87
50911521372400,125212,0.0443,-0.0096,-9.5773,0.0208,-0.0586,-0.0293,23.87
50911531733700,125223,0.0431,-0.0120,-9.5928,0.0208,-0.0574,-0.0318,23.90
50911542795400,125234,0.0538,-0.0144,-9.5868,0.0208,-0.0599,-0.0293,23.85
50911554657600,125246,0.0514,-0.0096,-9.5845,0.0208,-0.0574,-0.0293,23.85
50911565938500,125257,0.0467,-0.0096,-9.5964,0.0208,-0.0586,-0.0293,23.89
50911577261000,125268,0.0479,-0.0072,-9.5880,0.0195,-0.0586,-0.0293,23.89
50911588561200,125280,0.0526,-0.0048,-9.5821,0.0208,-0.0586,-0.0281,23.85
50911599893600,125291,0.0526,-0.0072,-9.5892,0.0208,-0.0599,-0.0293,23.85
50911611201300,125302,0.0514,-0.0084,-9.5940,0.0208,-0.0586,-0.0305,23.88
50911622575400,125314,0.0443,-0.0060,-9.5821,0.0208,-0.0586,-0.0293,23.88
50911633859400,125325,0.0550,-0.0108,-9.5952,0.0208,-0.0586,-0.0281,23.92
50911651955900,125336,0.0586,-0.0120,-9.6000,0.0195,-0.0586,-0.0293,23.87
50911663289700,125354,0.0371,-0.0108,-9.5797,0.0208,-0.0574,-0.0293,23.90
50911674637100,125366,0.0407,-0.0132,-9.5845,0.0208,-0.0586,-0.0305,23.90
50911686020100,125377,0.0479,-0.0167,-9.5880,0.0208,-0.0586,-0.0293,23.89
50911697322300,125388,0.0514,-0.0120,-9.5856,0.0208,-0.0586,-0.0293,23.89
50911708658000,125400,0.0550,-0.0084,-9.5880,0.0208,-0.0586,-0.0293,23.91
50911720040300,125411,0.0586,-0.0120,-9.5880,0.0208,-0.0574,-0.0305,23.91
50911731542400,125422,0.0514,-0.0084,-9.5880,0.0208,-0.0586,-0.0293,23.91
50911742677300,125434,0.0514,-0.0084,-9.5868,0.0208,-0.0586,-0.0293,23.91
50911753974900,125445,0.0443,-0.0096,-9.5964,0.0208,-0.0574,-0.0293,23.89
50911765282800,125456,0.0479,-0.0096,-9.5856,0.0208,-0.0574,-0.0293,23.91
50911776497000,125468,0.0514,-0.0072,-9.5773,0.0208,-0.0586,-0.0293,23.91
50911787878000,125479,0.0443,-0.0072,-9.5845,0.0208,-0.0586,-0.0293,23.89
50911799188400,125490,0.0407,-0.0084,-9.5904,0.0208,-0.0586,-0.0293,23.89
50911810731900,125502,0.0491,-0.0096,-9.5856,0.0208,-0.0586,-0.0305,23.91
50911821883100,125513,0.0526,-0.0132,-9.5868,0.0195,-0.0586,-0.0293,23.91
50911833266100,125524,0.0443,-0.0048,-9.5833,0.0208,-0.0586,-0.0281,23.89
50911844582900,125536,0.0455,-0.0036,-9.5833,0.0208,-0.0586,-0.0281,23.91
50911855870900,125547,0.0574,-0.0072,-9.5833,0.0208,-0.0586,-0.0293,23.91
50911867265500,125558,0.0634,-0.0156,-9.5868,0.0208,-0.0586,-0.0293,23.87
50911878346800,125570,0.0538,-0.0144,-9.5904,0.0208,-0.0586,-0.0293,23.87
50911889766100,125581,0.0467,-0.0120,-9.5845,0.0208,-0.0586,-0.0293,23.88
50911901154400,125592,0.0479,-0.0167,-9.5809,0.0208,-0.0574,-0.0293,23.88
50911912472900,125604,0.0491,-0.0203,-9.5880,0.0195,-0.0574,-0.0305,23.92
50911923815300,125615,0.0455,-0.0084,-9.5856,0.0195,-0.0586,-0.0293,23.88
50911935139700,125626,0.0455,-0.0096,-9.5821,0.0208,-0.0586,-0.0293,23.88
50911946477000,125638,0.0431,-0.0084,-9.5868,0.0208,-0.0586,-0.0305,23.87
50911957934500,125649,0.0395,-0.0084,-9.5856,0.0208,-0.0586,-0.0293,23.87
50911969351300,125660,0.0419,-0.0132,-9.5809,0.0208,-0.0586,-0.0305,23.87
50911980569100,125672,0.0479,-0.0096,-9.5904,0.0208,-0.0586,-0.0305,23.87
50911991989000,125683,0.0514,-0.0036,-9.5916,0.0208,-0.0574,-0.0293,23.91
50912003332900,125694,0.0586,-0.0096,-9.5833,0.0208,-0.0586,-0.0293,23.88
50912014640200,125706,0.0622,-0.0096,-9.5916,0.0208,-0.0586,-0.0293,23.88
50912025918300,125717,0.0622,-0.0144,-9.5880,0.0195,-0.0574,-0.0293,23.88
50912037232900,125728,0.0622,-0.0144,-9.5797,0.0195,-0.0586,-0.0293,23.88
50912048574700,125740,0.0562,-0.0108,-9.5845,0.0208,-0.0586,-0.0293,23.95
50912059898700,125751,0.0550,-0.0120,-9.5880,0.0208,-0.0586,-0.0293,23.95
50912071333900,125762,0.0562,-0.0096,-9.5868,0.0208,-0.0599,-0.0293,23.88
50912082722700,125774,0.0431,-0.0084,-9.5868,0.0195,-0.0586,-0.0293,23.88
50912094055100,125785,0.0395,0.0024,-9.5833,0.0208,-0.0586,-0.0293,23.90
50912105169900,125796,0.0395,0.0000,-9.5821,0.0208,-0.0574,-0.0293,23.90
50912116584700,125808,0.0407,-0.0072,-9.5880,0.0208,-0.0574,-0.0305,23.90
50912127931000,125819,0.0467,-0.0108,-9.5892,0.0195,-0.0574,-0.0305,23.85
50912139138500,125830,0.0514,-0.0144,-9.5821,0.0208,-0.0586,-0.0305,23.85
50912150454300,125842,0.0479,-0.0144,-9.5797,0.0208,-0.0586,-0.0293,23.89
50912161809300,125853,0.0443,-0.0096,-9.5821,0.0208,-0.0586,-0.0293,23.89
50912173073400,125864,0.0562,-0.0084,-9.5904,0.0208,-0.0574,-0.0293,23.89
50912184513600,125876,0.0550,-0.0060,-9.5892,0.0195,-0.0574,-0.0293,23.91
50912195821600,125887,0.0502,-0.0036,-9.5773,0.0208,-0.0586,-0.0293,23.91
50912207176600,125898,0.0491,-0.0036,-9.5785,0.0208,-0.0586,-0.0293,23.91
50912218482900,125910,0.0491,-0.0084,-9.5868,0.0208,-0.0574,-0.0293,23.91
50912229805500,125921,0.0479,-0.0132,-9.5868,0.0208,-0.0586,-0.0293,23.91
