host_timestamp,arduino_timestamp,ax,ay,az,gx,gy,gz,temperature
10654054851400,23025,-9.7615,-0.0419,-0.7968,0.0122,-0.0770,-0.0403,20.57
10654066447100,23037,-9.7615,-0.0419,-0.8040,0.0110,-0.0867,-0.0464,20.57
10654078957800,23048,-9.7555,-0.0371,-0.7908,0.0110,-0.0892,-0.0525,20.57
10654089069800,23059,-9.7639,-0.0479,-0.7813,0.0086,-0.0831,-0.0586,20.57
10654100280600,23071,-9.7771,-0.0682,-0.7825,0.0122,-0.0880,-0.0525,20.59
10654112763900,23082,-9.7663,-0.0562,-0.7741,0.0183,-0.0965,-0.0391,20.59
10654123749000,23093,-9.7567,-0.0455,-0.7693,0.0183,-0.0990,-0.0379,20.59
10654134379100,23105,-9.7651,-0.0550,-0.7681,0.0134,-0.0965,-0.0415,20.59
10654145405100,23116,-9.7687,-0.0562,-0.7645,0.0122,-0.0880,-0.0440,20.55
10654157157000,23127,-9.7591,-0.0622,-0.7717,0.0073,-0.0831,-0.0489,20.57
10654168725200,23139,-9.7675,-0.0610,-0.7669,0.0061,-0.0831,-0.0513,20.57
10654180771800,23150,-9.7591,-0.0658,-0.7633,0.0086,-0.0831,-0.0489,20.57
10654191446900,23161,-9.7627,-0.0682,-0.7490,0.0122,-0.0843,-0.0476,20.57
10654202395900,23173,-9.7687,-0.0670,-0.7250,0.0159,-0.0709,-0.0415,20.59
10654214348100,23184,-9.7663,-0.0754,-0.7107,0.0195,-0.0501,-0.0379,20.59
10654225891300,23195,-9.7747,-0.0802,-0.7226,0.0208,-0.0293,-0.0318,20.56
10654236605800,23207,-9.7651,-0.0742,-0.7717,0.0232,-0.0232,-0.0281,20.54
10654247760800,23218,-9.7687,-0.0754,-0.7920,0.0220,-0.0342,-0.0281,20.54
10654259905700,23229,-9.7675,-0.0718,-0.7992,0.0220,-0.0538,-0.0293,20.56
10654270913300,23241,-9.7591,-0.0658,-0.7920,0.0195,-0.0709,-0.0293,20.56
10654281970100,23252,-9.7603,-0.0658,-0.7825,0.0171,-0.0819,-0.0305,20.57
10654294291700,23263,-9.7675,-0.0646,-0.7597,0.0183,-0.0831,-0.0305,20.57
10654305054800,23275,-9.7675,-0.0562,-0.7394,0.0195,-0.0696,-0.0305,20.59
10654315682700,23286,-9.7687,-0.0502,-0.7549,0.0208,-0.0562,-0.0318,20.59
10654328181300,23297,-9.7615,-0.0574,-0.7705,0.0195,-0.0586,-0.0391,20.56
10654338940400,23309,-9.7591,-0.0634,-0.7825,0.0183,-0.0660,-0.0440,20.57
10654349882700,23320,-9.7627,-0.0933,-0.7992,0.0183,-0.0904,-0.0428,20.57
10654361695400,23331,-9.7675,-0.1029,-0.7872,0.0281,-0.1173,-0.0281,20.55
10654372827400,23342,-9.7627,-0.0826,-0.7466,0.0305,-0.1222,-0.0195,20.55
10654383571900,23354,-9.7711,-0.0670,-0.7035,0.0293,-0.1038,-0.0208,20.54
10654396112600,23365,-9.7795,-0.0491,-0.6843,0.0257,-0.0684,-0.0269,20.54
10654406817000,23376,-9.7723,-0.0718,-0.7501,0.0171,-0.0257,-0.0403,20.54
10654417689300,23388,-9.7663,-0.0790,-0.7813,0.0195,-0.0415,-0.0391,20.57
10654429776300,23399,-9.7675,-0.0790,-0.7932,0.0232,-0.0684,-0.0354,20.57
10654441361100,23410,-9.7651,-0.0802,-0.7980,0.0244,-0.0953,-0.0342,20.56
10654451465800,23422,-9.7639,-0.0802,-0.7872,0.0232,-0.1185,-0.0293,20.56
10654463500100,23433,-9.7651,-0.0706,-0.7561,0.0244,-0.1319,-0.0269,20.55
10654474781300,23444,-9.7711,-0.0706,-0.7202,0.0220,-0.1246,-0.0293,20.55
10654485167400,23456,-9.7747,-0.0778,-0.6975,0.0208,-0.1014,-0.0293,20.55
10654496855300,23467,-9.7723,-0.0610,-0.7155,0.0195,-0.0745,-0.0342,20.57
10654509052000,23478,-9.7735,-0.0766,-0.7155,0.0183,-0.0770,-0.0354,20.57
10654519250300,23490,-9.7759,-0.0802,-0.7298,0.0183,-0.0892,-0.0318,20.54
10654531845600,23501,-9.7687,-0.0718,-0.7466,0.0171,-0.1136,-0.0305,20.54
10654542031800,23512,-9.7663,-0.0718,-0.7418,0.0086,-0.1405,-0.0354,20.55
10654553384500,23524,-9.7687,-0.0861,-0.7370,0.0061,-0.1649,-0.0354,20.55
10654564778600,23535,-9.7663,-0.0969,-0.7178,0.0134,-0.1833,-0.0269,20.54
10654576572700,23546,-9.7771,-0.0706,-0.6221,0.0171,-0.1649,-0.0232,20.54
10654587517800,23558,-9.7759,-0.0634,-0.5922,0.0171,-0.1295,-0.0244,20.54
10654598891000,23569,-9.7783,-0.0574,-0.5815,0.0159,-0.0880,-0.0269,20.57
10654610204400,23580,-9.7807,-0.0562,-0.5922,0.0171,-0.0489,-0.0293,20.57
10654621527600,23592,-9.7771,-0.0658,-0.6269,0.0183,-0.0269,-0.0330,20.52
10654632796800,23603,-9.7699,-0.0814,-0.6640,0.0232,-0.0305,-0.0293,20.52
10654644805800,23614,-9.7783,-0.0921,-0.6808,0.0305,-0.0501,-0.0220,20.57
10654656313900,23626,-9.7807,-0.0826,-0.6760,0.0293,-0.0696,-0.0183,20.57
10654666516300,23637,-9.7771,-0.0634,-0.6413,0.0195,-0.0672,-0.0318,20.55
10654678430700,23648,-9.7747,-0.0790,-0.6389,0.0195,-0.0550,-0.0354,20.57
10654690500300,23660,-9.7699,-0.0826,-0.6401,0.0220,-0.0440,-0.0318,20.57
10654700655300,23671,-9.7711,-0.0766,-0.6592,0.0257,-0.0415,-0.0281,20.54
10654712697300,23682,-9.7747,-0.0658,-0.6867,0.0281,-0.0538,-0.0232,20.54
10654723956600,23694,-9.7783,-0.0562,-0.6939,0.0281,-0.0782,-0.0195,20.53
10654734467300,23705,-9.7795,-0.0443,-0.6676,0.0244,-0.0941,-0.0244,20.53
10654746281800,23716,-9.7795,-0.0634,-0.6425,0.0147,-0.0696,-0.0440,20.56
10654758209100,23728,-9.7735,-0.0766,-0.6724,0.0134,-0.0672,-0.0452,20.57
10654768662300,23739,-9.7747,-0.0814,-0.6903,0.0134,-0.0867,-0.0440,20.57
10654781236800,23750,-9.7819,-0.0873,-0.6688,0.0122,-0.1087,-0.0415,20.55
10654792478500,23762,-9.7783,-0.0945,-0.6329,0.0049,-0.1210,-0.0342,20.55
10654802822800,23773,-9.7783,-0.0921,-0.6030,0.0098,-0.1136,-0.0293,20.55
10654814706000,23784,-9.7783,-0.0885,-0.5815,0.0171,-0.0965,-0.0244,20.55
10654825910900,23796,-9.7783,-0.0873,-0.5838,0.0232,-0.0757,-0.0208,20.57
10654837005500,23807,-9.7795,-0.0526,-0.5898,0.0293,-0.0391,-0.0244,20.57
10654848294800,23818,-9.7771,-0.0479,-0.6126,0.0269,-0.0232,-0.0318,20.57
10654860487900,23830,-9.7759,-0.0491,-0.6497,0.0208,-0.0257,-0.0440,20.55
10654871590500,23841,-9.7771,-0.0682,-0.6712,0.0171,-0.0452,-0.0501,20.55
10654882082900,23852,-9.7747,-0.0790,-0.6748,0.0147,-0.0709,-0.0476,20.58
10654894014900,23864,-9.7735,-0.0802,-0.6688,0.0073,-0.0929,-0.0428,20.58
10654904918700,23875,-9.7759,-0.0933,-0.6508,0.0061,-0.1026,-0.0415,20.54
10654916207600,23886,-9.7783,-0.0849,-0.6185,0.0110,-0.0965,-0.0281,20.60
10654928123300,23898,-9.7866,-0.0610,-0.5982,0.0122,-0.0916,-0.0305,20.60
10654939023000,23909,-9.7950,-0.0455,-0.5838,-0.0049,-0.0855,-0.0513,20.52
10654950419300,23920,-9.7914,-0.0562,-0.5946,-0.0195,-0.0831,-0.0684,20.52
10654961982900,23932,-9.7866,-0.0730,-0.6006,-0.0159,-0.0843,-0.0794,20.56
10654972974200,23943,-9.7735,-0.0993,-0.6042,-0.0159,-0.0892,-0.0831,20.56
10654983794900,23954,-9.7639,-0.1328,-0.6185,-0.0098,-0.0977,-0.0696,20.57
10654995196400,23966,-9.7831,-0.1041,-0.5898,0.0073,-0.1038,-0.0415,20.57
10655005788700,23977,-9.7831,-0.0909,-0.5791,0.0171,-0.0929,-0.0452,20.57
10655017139900,23988,-9.7866,-0.0885,-0.5767,0.0122,-0.0843,-0.0525,20.56
10655028894300,24000,-9.7866,-0.0897,-0.5886,0.0073,-0.0806,-0.0599,20.56
10655041119400,24011,-9.7831,-0.1137,-0.6042,0.0134,-0.0843,-0.0611,20.58
10655052407000,24022,-9.7747,-0.1292,-0.6054,0.0269,-0.0929,-0.0501,20.58
10655063394000,24034,-9.7807,-0.1184,-0.5838,0.0367,-0.0990,-0.0391,20.57
10655075294700,24045,-9.7854,-0.1077,-0.5647,0.0415,-0.0941,-0.0391,20.57
10655086203800,24056,-9.7735,-0.1364,-0.5695,0.0269,-0.0867,-0.0269,20.55
10655098436800,24068,-9.7771,-0.1292,-0.5731,0.0183,-0.0941,-0.0159,20.56
10655109822500,24079,-9.7926,-0.1196,-0.5731,-0.0037,-0.1038,-0.0220,20.56
10655120627900,24091,-9.7890,-0.1244,-0.5850,-0.0024,-0.1148,-0.0171,20.55
10655131510900,24102,-9.7675,-0.1256,-0.5767,0.0073,-0.1307,-0.0098,20.55
10655142554100,24113,-9.7723,-0.1196,-0.5384,0.0318,-0.1319,0.0000,20.55
10655154559100,24124,-9.7926,-0.0933,-0.5025,0.0403,-0.1185,0.0073,20.55
10655165669400,24136,-9.7902,-0.0790,-0.5001,0.0330,-0.0855,0.0049,20.61
10655177326300,24147,-9.7950,-0.0909,-0.5180,0.0305,-0.0721,-0.0037,20.57
10655188751900,24158,-9.7854,-0.1364,-0.5527,0.0403,-0.0684,0.0012,20.57
10655199492100,24170,-9.7807,-0.1268,-0.5587,0.0611,-0.0745,0.0159,20.59
10655211480300,24181,-9.8225,-0.2022,-0.5228,0.0696,-0.0892,0.0159,20.59
10655222302200,24192,-9.7914,-0.0969,-0.5013,0.0806,-0.1710,-0.0122,20.53
10655233359400,24204,-9.7843,-0.0873,-0.4403,0.0611,-0.1124,0.0171,20.53
10655245295700,24215,-9.7926,-0.0610,-0.4977,0.0538,-0.1466,-0.0086,20.58
10655256286100,24226,-9.8034,-0.1017,-0.4690,0.0672,-0.0953,-0.0073,20.60
10655267423300,24238,-9.7926,-0.0778,-0.4953,0.0757,-0.1136,-0.0171,20.60
10655279401800,24249,-9.7926,-0.1149,-0.4810,0.0684,-0.1112,-0.0208,20.59
10655290260600,24260,-9.7938,-0.0885,-0.4845,0.0599,-0.1307,-0.0183,20.59
10655301647100,24272,-9.7890,-0.0706,-0.5097,0.0476,-0.1442,-0.0220,20.57
10655313283300,24283,-9.7831,-0.0407,-0.5180,0.0415,-0.1710,-0.0159,20.57
10655324226200,24294,-9.7914,-0.0024,-0.4953,0.0403,-0.1564,-0.0061,20.58
10655335834900,24306,-9.7938,-0.1711,-0.4164,0.0586,-0.1710,-0.0281,20.60
10655347270400,24317,-9.8010,-0.2118,-0.3948,0.0574,-0.1662,-0.0269,20.60
10655358373500,24328,-9.7986,-0.1077,-0.3984,0.0464,-0.1576,-0.0293,20.60
10655369230800,24340,-9.7974,0.0287,-0.3685,0.0562,-0.1307,-0.0122,20.60
10655381223900,24351,-9.7926,-0.0383,-0.3769,0.0391,-0.1148,-0.0342,20.55
10655392134100,24362,-9.7938,-0.1196,-0.4080,0.0476,-0.1173,-0.0195,20.55
10655403379700,24374,-9.8034,-0.0407,-0.3972,0.0379,-0.1185,-0.0269,20.58
10655415136700,24385,-9.7926,0.0502,-0.3817,0.0379,-0.1136,-0.0195,20.58
10655426486700,24396,-9.8046,0.0622,-0.3326,0.0195,-0.0880,-0.0244,20.56
10655437580100,24408,-9.7878,-0.0526,-0.3529,0.0159,-0.0806,-0.0305,20.57
10655448860100,24419,-9.7938,-0.0658,-0.3529,0.0159,-0.0770,-0.0257,20.57
10655460899000,24430,-9.8070,-0.0658,-0.3577,0.0183,-0.0709,-0.0220,20.56
10655472281900,24442,-9.8022,-0.0670,-0.3661,0.0220,-0.0696,-0.0183,20.56
10655483106000,24453,-9.8034,-0.0646,-0.3709,0.0244,-0.0745,-0.0171,20.56
10655494757100,24464,-9.7974,-0.1161,-0.3864,0.0232,-0.0770,-0.0183,20.56
10655506051900,24476,-9.7974,-0.3015,-0.4834,0.0648,-0.0684,-0.0208,20.53
10655516933600,24487,-9.7974,-0.2333,-0.4881,0.0489,-0.0684,-0.0159,20.55
10655529237700,24498,-9.7854,-0.2022,-0.4953,0.0269,-0.0672,-0.0195,20.55
10655540472600,24510,-9.7866,-0.2237,-0.4834,0.0379,-0.0550,-0.0244,20.56
10655550951600,24521,-9.8082,-0.0885,-0.3924,0.0452,-0.0574,-0.0171,20.56
10655562757900,24532,-9.8130,-0.0096,-0.3338,0.0464,-0.0513,-0.0171,20.56
10655573395800,24544,-9.8046,-0.0251,-0.3278,0.0538,-0.0464,-0.0098,20.56
10655585414400,24555,-9.7974,0.0323,-0.0096,0.0403,-0.0281,-0.0208,20.59
10655596360900,24566,-9.8010,0.0084,-0.3362,0.0440,-0.0183,-0.0330,20.56
10655608526100,24578,-9.8082,-0.0514,-0.3840,0.0501,-0.0208,-0.0330,20.56
10655619062500,24589,-9.7675,-0.1268,-0.4475,0.0611,-0.0305,-0.0269,20.58
10655630924100,24600,-9.7974,-0.1460,-0.4774,0.0819,-0.0428,-0.0134,20.58
10655641974400,24612,-9.8261,-0.0646,-0.4367,0.0745,-0.0391,-0.0281,20.60
10655652977200,24623,-9.7747,-0.0455,-0.4247,0.0684,-0.0452,-0.0318,20.60
10655664678800,24634,-9.8046,-0.0371,-0.4175,0.0586,-0.0440,-0.0232,20.53
10655676143500,24646,-9.8010,0.0191,-0.3709,0.0574,-0.0452,-0.0110,20.54
10655687478300,24657,-9.7986,0.0263,-0.3601,0.0476,-0.0391,-0.0147,20.54
10655698540400,24668,-9.7962,0.0060,-0.3362,0.0428,-0.0452,-0.0208,20.59
10655710191700,24680,-9.8178,-0.0275,-0.3661,0.0281,-0.0611,-0.0257,20.59
10655721675400,24691,-9.7938,-0.0538,-0.4199,0.0428,-0.0489,-0.0257,20.57
10655732345400,24702,-9.7962,-0.0491,-0.4343,0.0599,-0.0476,-0.0183,20.57
10655744153600,24714,-9.7926,-0.1101,-0.4881,0.0599,-0.0379,-0.0134,20.54
10655754777300,24725,-9.7819,-0.1268,-0.5085,0.0794,-0.0281,-0.0037,20.54
10655765744400,24736,-9.7914,-0.0646,-0.4678,0.0977,-0.0330,-0.0012,20.54
10655777083400,24748,-9.7854,0.0000,-0.4235,0.0941,-0.0538,-0.0110,20.55
10655788504500,24759,-9.7843,0.0179,-0.4199,0.0806,-0.0623,-0.0244,20.55
10655799779000,24770,-9.7974,-0.0132,-0.4068,0.0867,-0.0489,-0.0305,20.54
10655811012700,24782,-9.8166,-0.0598,-0.4008,0.0867,-0.0489,-0.0269,20.54
10655822525600,24793,-9.7974,-0.1340,-0.4702,0.0843,-0.0428,-0.0183,20.54
10655833876600,24804,-9.7843,-0.1364,-0.5049,0.0904,-0.0330,-0.0147,20.54
10655845179500,24816,-9.7950,-0.0718,-0.4307,0.0819,-0.0428,-0.0195,20.59
10655856450600,24827,-9.7795,0.0323,-0.4164,0.0733,-0.0538,-0.0208,20.55
10655867465800,24838,-9.8010,0.1125,-0.3290,0.0538,-0.0623,-0.0269,20.55
10655878958900,24850,-9.8118,0.1089,-0.2656,0.0379,-0.0709,-0.0244,20.56
10655890304900,24861,-9.8070,0.0969,-0.2441,0.0403,-0.0721,-0.0244,20.56
10655901682000,24872,-9.7890,0.0455,-0.3003,0.0354,-0.0586,-0.0330,20.54
10655912952000,24884,-9.7926,0.0203,-0.3338,0.0391,-0.0318,-0.0501,20.54
10655924281300,24895,-9.8094,0.0526,-0.3601,0.0391,-0.0452,-0.0452,20.59
10655935578100,24906,-9.7998,-0.0443,-0.3924,0.0452,-0.0489,-0.0281,20.56
10655946899900,24918,-9.8022,-0.0203,-0.3649,0.0452,-0.0525,-0.0220,20.56
10655958189800,24929,-9.8022,-0.0479,-0.4187,0.0464,-0.0574,-0.0244,20.57
10655969552500,24940,-9.7866,-0.0526,-0.4439,0.0513,-0.0550,-0.0257,20.57
10655980769800,24952,-9.7866,-0.0108,-0.4211,0.0489,-0.0586,-0.0354,20.56
10655992347900,24963,-9.7998,-0.0263,-0.4343,0.0476,-0.0660,-0.0330,20.56
10656003523300,24974,-9.7866,-0.0646,-0.4762,0.0440,-0.0721,-0.0257,20.59
10656014807300,24986,-9.7938,-0.1902,-0.6030,0.0635,-0.0440,-0.0257,20.60
10656026193900,24997,-9.7926,-0.1795,-0.6305,0.0757,-0.0513,-0.0171,20.60
10656037562900,25008,-9.7699,-0.1878,-0.6604,0.0794,-0.0501,-0.0098,20.59
10656048943600,25020,-9.7831,-0.2106,-0.6580,0.0941,-0.0489,-0.0061,20.59
10656060149300,25031,-9.7843,-0.2477,-0.6604,0.0953,-0.0452,-0.0049,20.56
10656071639300,25042,-9.7795,-0.2273,-0.6401,0.1087,-0.0489,0.0000,20.56
10656083073200,25054,-9.8022,-0.0191,-0.5121,0.1075,-0.0611,-0.0134,20.55
10656093852700,25065,-9.7807,0.0467,-0.4750,0.0965,-0.0635,-0.0195,20.55
10656105691600,25076,-9.7854,0.0407,-0.4475,0.1234,-0.0586,-0.0183,20.58
10656116859400,25088,-9.8010,-0.0263,-0.4726,0.1148,-0.0476,-0.0122,20.59
10656128077100,25099,-9.8213,-0.0227,-0.3721,0.1161,-0.0428,-0.0147,20.59
10656139377300,25110,-9.8213,0.0275,-0.3398,0.1002,-0.0855,-0.0098,20.55
10656150420000,25121,-9.7962,-0.0239,-0.4056,0.1014,-0.0684,-0.0061,20.55
10656161926800,25133,-9.7843,-0.0347,-0.4092,0.1100,-0.0623,-0.0110,20.54
10656173400000,25144,-9.7831,0.0491,-0.3852,0.1051,-0.0648,-0.0147,20.54
10656184311100,25155,-9.8118,-0.0287,-0.4343,0.1087,-0.0501,-0.0122,20.57
10656196066700,25167,-9.8022,-0.0467,-0.4343,0.1100,-0.0379,-0.0110,20.59
10656207488200,25178,-9.7723,-0.0514,-0.4762,0.1161,-0.0464,-0.0110,20.59
10656218615200,25189,-9.8010,-0.0144,-0.4618,0.1075,-0.0599,-0.0110,20.56
10656229824800,25201,-9.8166,0.0000,-0.4319,0.1112,-0.0806,0.0049,20.56
10656241249600,25212,-9.8106,-0.0275,-0.4379,0.1258,-0.0684,0.0110,20.55
10656252093200,25223,-9.7866,0.0036,-0.3960,0.1271,-0.0623,0.0110,20.55
10656263621900,25235,-9.7663,0.0502,-0.3745,0.1136,-0.0623,-0.0061,20.58
10656275034500,25246,-9.7878,0.0179,-0.3876,0.1014,-0.0586,-0.0281,20.57
10656286416000,25257,-9.8130,0.0586,-0.3757,0.1075,-0.0574,-0.0281,20.57
10656297882600,25269,-9.8022,0.0861,-0.3972,0.1075,-0.0550,-0.0354,20.56
10656309213800,25280,-9.7962,0.0981,-0.3900,0.1087,-0.0550,-0.0305,20.56
10656320473400,25291,-9.8058,0.0885,-0.3852,0.1026,-0.0586,-0.0244,20.58
10656331720300,25302,-9.7938,0.0491,-0.3805,0.1014,-0.0525,-0.0244,20.58
10656343067500,25314,-9.7902,0.0275,-0.3661,0.0990,-0.0550,-0.0220,20.55
10656354513400,25325,-9.7902,-0.0239,-0.4092,0.0806,-0.0648,-0.0281,20.53
10656365976200,25336,-9.7974,-0.0347,-0.4618,0.0843,-0.0648,-0.0232,20.53
10656378214900,25348,-9.8058,-0.1089,-0.5001,0.0916,-0.0599,-0.0195,20.56
10656389101500,25359,-9.7962,-0.1041,-0.5432,0.1026,-0.0562,-0.0159,20.56
10656400084100,25371,-9.7819,0.0036,-0.5480,0.1038,-0.0440,-0.0183,20.54
10656412514900,25382,-9.7866,0.0359,-0.5408,0.0965,-0.0452,-0.0232,20.54
10656423569400,25393,-9.7950,0.0203,-0.5240,0.0831,-0.0635,-0.0281,20.57
10656434191100,25405,-9.8070,0.0287,-0.5192,0.0806,-0.0794,-0.0220,20.57
10656446042100,25416,-9.7807,-0.0742,-0.5492,0.1002,-0.0684,-0.0122,20.57
10656457588000,25427,-9.7998,-0.0502,-0.5312,0.1185,-0.0440,-0.0061,20.50
10656468160700,25439,-9.8034,-0.0670,-0.4762,0.1124,-0.0403,-0.0122,20.50
10656480522200,25450,-9.7950,-0.0754,-0.5121,0.1124,-0.0464,-0.0061,20.55
10656490784800,25461,-9.7747,-0.0550,-0.5121,0.1185,-0.0562,0.0073,20.55
10656502333500,25472,-9.7771,-0.0371,-0.4738,0.1295,-0.0476,0.0073,20.54
10656514425400,25484,-9.7699,0.0395,-0.4391,0.1283,-0.0599,-0.0024,20.54
10656524877100,25495,-9.8213,0.0646,-0.4810,0.1026,-0.0696,-0.0061,20.56
10656536037800,25506,-9.7747,0.0550,-0.5073,0.1197,-0.0574,-0.0037,20.55
10656548092300,25518,-9.7771,-0.0084,-0.4594,0.1210,-0.0562,-0.0195,20.55
10656559133500,25529,-9.8094,0.0024,-0.4331,0.1246,-0.0562,-0.0269,20.56
10656570562600,25540,-9.7771,0.0778,-0.4056,0.1210,-0.0562,-0.0269,20.56
10656582122900,25552,-9.7699,0.0550,-0.4080,0.1087,-0.0538,-0.0379,20.54
10656593486800,25563,-9.8213,0.0586,-0.4247,0.1087,-0.0831,-0.0269,20.54
10656604601500,25574,-9.8118,0.0873,-0.4762,0.1063,-0.0916,-0.0183,20.57
10656615264700,25586,-9.7735,-0.0156,-0.4726,0.1026,-0.0586,-0.0379,20.57
10656627107900,25597,-9.8094,0.0215,-0.4510,0.1161,-0.0660,-0.0183,20.57
10656638341600,25608,-9.8106,0.0455,-0.4235,0.1100,-0.0586,-0.0110,20.57
10656649298000,25620,-9.7795,0.0072,-0.4403,0.1210,-0.0525,0.0012,20.57
10656661125300,25631,-9.7843,0.0323,-0.4008,0.1246,-0.0464,0.0024,20.56
10656672863200,25642,-9.8285,0.0359,-0.3709,0.0929,-0.0696,-0.0195,20.56
10656683260700,25654,-9.7986,-0.0502,-0.4881,0.0904,-0.0611,-0.0220,20.57
10656695077900,25665,-9.7747,-0.0634,-0.5575,0.1234,-0.0428,0.0061,20.58
10656705973500,25676,-9.7555,-0.0179,-0.5432,0.1210,-0.0501,-0.0024,20.58
10656717167200,25687,-9.7950,0.0251,-0.5288,0.1075,-0.0574,-0.0073,20.59
10656729290200,25699,-9.8213,0.0347,-0.5767,0.1100,-0.0709,-0.0024,20.59
10656740772300,25710,-9.7986,0.0514,-0.5049,0.1246,-0.0599,0.0061,20.59
10656751038300,25721,-9.7771,0.0502,-0.5049,0.1112,-0.0733,-0.0134,20.59
10656763381400,25733,-9.7771,0.0359,-0.5635,0.1295,-0.0501,0.0024,20.57
10656774360700,25744,-9.7579,0.0873,-0.5240,0.1319,-0.0513,0.0086,20.57
10656785424700,25755,-9.8189,0.0634,-0.4834,0.0880,-0.0709,-0.0269,20.54
10656797093600,25767,-9.7950,0.0849,-0.5180,0.0990,-0.0745,-0.0049,20.57
10656808328600,25778,-9.7519,0.0562,-0.4965,0.1026,-0.0745,-0.0037,20.57
10656819432100,25790,-9.7878,-0.0132,-0.4822,0.1161,-0.0550,-0.0171,20.55
10656830511900,25801,-9.8130,0.0191,-0.4331,0.1319,-0.0721,-0.0024,20.55
10656842086800,25812,-9.7998,0.0802,-0.4032,0.1344,-0.0757,0.0012,20.55
10656853615700,25823,-9.7807,0.1137,-0.3829,0.1271,-0.0709,-0.0049,20.55
10656864301200,25835,-9.8154,0.1807,-0.2788,0.1222,-0.0733,-0.0428,20.59
10656876135600,25846,-9.8285,0.1412,-0.2728,0.0990,-0.0831,-0.0195,20.55
10656887480400,25857,-9.8010,0.1065,-0.3159,0.1002,-0.0880,-0.0049,20.55
10656899443700,25869,-9.7783,0.0778,-0.3266,0.0953,-0.0843,-0.0086,20.58
10656909802300,25880,-9.7735,0.0419,-0.3135,0.0892,-0.0721,-0.0232,20.58
10656921576900,25891,-9.7938,0.0849,-0.3159,0.0806,-0.0648,-0.0330,20.55
10656932851400,25903,-9.8285,0.1041,-0.2800,0.0819,-0.0586,-0.0342,20.55
10656943891900,25914,-9.8154,0.0909,-0.2477,0.0843,-0.0599,-0.0281,20.59
10656954773200,25925,-9.7914,0.0897,-0.3027,0.0672,-0.0586,-0.0269,20.57
10656965655100,25937,-9.7926,0.0550,-0.3350,0.0574,-0.0611,-0.0269,20.57
10656978262800,25948,-9.8178,-0.0060,-0.3541,0.0501,-0.0684,-0.0330,20.56
10656989512300,25959,-9.8094,-0.0132,-0.3984,0.0550,-0.0660,-0.0257,20.56
10657000488200,25971,-9.7914,-0.0012,-0.4140,0.0562,-0.0562,-0.0318,20.57
10657012609000,25982,-9.7974,-0.0024,-0.4235,0.0648,-0.0550,-0.0244,20.57
10657024515800,25993,-9.8034,0.0251,-0.4032,0.0696,-0.0452,-0.0195,20.57
10657035142000,26005,-9.7831,0.1029,-0.3290,0.0525,-0.0550,-0.0281,20.58
10657046973500,26016,-9.7890,0.0646,-0.4044,0.0513,-0.0476,-0.0318,20.58
10657058692900,26027,-9.8010,0.0048,-0.4463,0.0550,-0.0550,-0.0318,20.55
10657069278300,26039,-9.8046,-0.0084,-0.4881,0.0574,-0.0476,-0.0318,20.55
10657087386200,26050,-9.8010,0.0096,-0.4953,0.0660,-0.0525,-0.0208,20.55
10657099025400,26068,-9.7914,0.0431,-0.4558,0.0574,-0.0599,-0.0281,20.59
10657110847400,26080,-9.7783,0.0586,-0.4259,0.0586,-0.0611,-0.0232,20.59
10657121471000,26091,-9.7747,0.0706,-0.4295,0.0550,-0.0513,-0.0330,20.56
10657133651400,26102,-9.8022,0.0921,-0.4223,0.0709,-0.0428,-0.0354,20.56
10657144599600,26114,-9.7914,0.0945,-0.3888,0.0574,-0.0440,-0.0440,20.54
10657155668500,26125,-9.7866,0.0538,-0.4798,0.0403,-0.0501,-0.0611,20.55
10657168223400,26136,-9.7986,0.0167,-0.5432,0.0354,-0.0440,-0.0635,20.55
10657179329300,26148,-9.8010,0.0108,-0.5599,0.0599,-0.0391,-0.0428,20.57
10657189937800,26159,-9.7914,0.0096,-0.5360,0.0696,-0.0415,-0.0318,20.57
10657201300600,26170,-9.7986,0.0108,-0.5240,0.0770,-0.0428,-0.0244,20.59
10657213223900,26182,-9.7914,0.0299,-0.5073,0.0953,-0.0281,-0.0208,20.59
10657224302100,26193,-9.7735,0.0479,-0.4929,0.1002,-0.0318,-0.0269,20.53
10657234934200,26204,-9.8082,0.0479,-0.4582,0.0819,-0.0452,-0.0464,20.53
10657246772800,26216,-9.8130,0.1603,-0.4175,0.0745,-0.0916,-0.0354,20.57
10657258415600,26227,-9.7699,0.1771,-0.3924,0.0281,-0.0696,-0.0501,20.55
10657268843100,26238,-9.7843,0.0993,-0.4223,0.0110,-0.0819,-0.0525,20.55
10657281151000,26250,-9.8106,0.0550,-0.4510,0.0293,-0.0770,-0.0342,20.60
10657292339500,26261,-9.8010,-0.0299,-0.4845,0.0354,-0.0648,-0.0244,20.60
10657302880500,26272,-9.7902,-0.0802,-0.5145,0.0538,-0.0794,-0.0073,20.57
10657314033500,26284,-9.7962,-0.0766,-0.5228,0.0660,-0.0623,0.0012,20.57
10657326081800,26295,-9.7639,0.0156,-0.4618,0.0672,-0.0733,-0.0134,20.57
10657336822300,26306,-9.7807,0.0921,-0.4056,0.0635,-0.0599,-0.0281,20.56
10657348923500,26318,-9.8237,0.1519,-0.3637,0.0403,-0.0611,-0.0354,20.56
10657359609100,26329,-9.8070,0.1172,-0.3900,0.0257,-0.0660,-0.0391,20.54
10657371131900,26340,-9.7938,0.0395,-0.4128,0.0367,-0.0623,-0.0354,20.54
10657383669400,26352,-9.7890,-0.0263,-0.4534,0.0599,-0.0806,-0.0244,20.56
10657394297200,26363,-9.7687,-0.0179,-0.4738,0.0574,-0.0489,-0.0159,20.56
10657405379700,26374,-9.8094,-0.0263,-0.5049,0.0379,-0.0538,-0.0220,20.61
10657417213000,26386,-9.8189,-0.0730,-0.5599,0.0611,-0.0660,0.0073,20.55
10657427721400,26397,-9.7962,-0.0790,-0.5815,0.0782,-0.0696,0.0171,20.55
10657439155700,26408,-9.7783,-0.0287,-0.5695,0.0721,-0.0415,0.0037,20.58
10657451219300,26420,-9.7807,-0.0108,-0.5492,0.0990,-0.0550,0.0098,20.58
10657462180300,26431,-9.7795,0.0167,-0.5180,0.0953,-0.0501,-0.0024,20.56
10657473763500,26442,-9.7831,0.1065,-0.4810,0.0684,-0.0611,-0.0220,20.56
10657484001900,26454,-9.7962,0.0969,-0.4750,0.0574,-0.0525,-0.0208,20.57
10657496182800,26465,-9.7711,-0.0275,-0.5408,0.1002,-0.0464,0.0134,20.56
10657507047700,26476,-9.7843,0.0024,-0.5216,0.0990,-0.0550,0.0098,20.56
10657518450900,26488,-9.7986,0.0203,-0.4941,0.0990,-0.0501,0.0086,20.60
10657529723300,26499,-9.7902,0.0012,-0.4845,0.0819,-0.0672,-0.0098,20.60
10657541203300,26510,-9.7926,0.0491,-0.4881,0.1026,-0.0696,0.0049,20.57
10657552767600,26522,-9.7878,0.1161,-0.4056,0.0965,-0.0623,-0.0024,20.57
10657564941300,26533,-9.7902,0.1412,-0.3984,0.0635,-0.0660,-0.0354,20.53
10657575065600,26544,-9.7866,0.0084,-0.4534,0.0843,-0.0513,-0.0134,20.59
10657586576700,26556,-9.7974,-0.0036,-0.4786,0.0855,-0.0635,-0.0147,20.59
10657598349300,26567,-9.7866,0.0311,-0.4451,0.0916,-0.0635,-0.0134,20.53
10657609328300,26578,-9.7974,0.0407,-0.4259,0.0831,-0.0745,-0.0159,20.53
10657620037200,26590,-9.7950,0.0514,-0.4487,0.0819,-0.0660,-0.0147,20.61
10657631251600,26601,-9.7974,0.0407,-0.4510,0.0770,-0.0696,-0.0147,20.61
10657642881900,26612,-9.8225,0.0598,-0.4307,0.0770,-0.0623,-0.0147,20.55
10657654481900,26624,-9.8118,0.0861,-0.4116,0.0806,-0.0648,-0.0061,20.55
10657666364400,26635,-9.7819,0.1029,-0.3386,0.0709,-0.0648,-0.0122,20.55
10657677294000,26646,-9.7866,0.1065,-0.3601,0.0770,-0.0611,-0.0110,20.59
10657688598200,26658,-9.7938,0.0646,-0.3781,0.0867,-0.0525,-0.0098,20.59
10657700349400,26669,-9.8213,0.0598,-0.4044,0.0831,-0.0525,-0.0110,20.57
10657711039400,26680,-9.8058,0.0479,-0.4463,0.0782,-0.0562,-0.0110,20.57
10657722629700,26692,-9.7699,0.0156,-0.4798,0.0806,-0.0562,-0.0098,20.61
10657733369700,26703,-9.7723,0.0383,-0.4606,0.0794,-0.0525,-0.0110,20.61
10657745849100,26714,-9.8046,0.0251,-0.4738,0.0880,-0.0623,0.0012,20.55
10657756737100,26726,-9.7854,0.0455,-0.4666,0.0867,-0.0733,-0.0037,20.56
10657767526100,26737,-9.7854,0.1005,-0.3912,0.0794,-0.0721,-0.0171,20.56
10657779150200,26748,-9.7843,0.0670,-0.3924,0.0672,-0.0696,-0.0183,20.55
10657790677100,26760,-9.8010,0.0371,-0.4487,0.0867,-0.0623,0.0024,20.55
10657801535200,26771,-9.7878,0.0802,-0.4463,0.0892,-0.0684,0.0086,20.57
10657813600000,26782,-9.7531,0.1364,-0.3948,0.0733,-0.0586,-0.0171,20.57
10657824476200,26793,-9.7711,0.1651,-0.3709,0.0709,-0.0599,-0.0305,20.54
10657834990900,26805,-9.8094,0.1651,-0.3852,0.0855,-0.0489,-0.0379,20.56
10657846577700,26816,-9.7914,0.1603,-0.4235,0.0733,-0.0538,-0.0403,20.56
10657858318800,26827,-9.7890,0.0945,-0.5037,0.0648,-0.0513,-0.0379,20.57
10657869420800,26839,-9.7974,0.0419,-0.5264,0.0770,-0.0403,-0.0293,20.57
10657881256200,26850,-9.7807,0.0550,-0.5025,0.0892,-0.0428,-0.0098,20.55
10657892316100,26861,-9.7866,0.0395,-0.4941,0.0782,-0.0648,-0.0110,20.55
10657903231000,26873,-9.8022,0.0215,-0.5276,0.0831,-0.0696,-0.0122,20.61
10657914969400,26884,-9.7854,0.0335,-0.5001,0.1136,-0.0562,0.0086,20.61
10657926543000,26895,-9.7699,0.0742,-0.5145,0.1100,-0.0452,-0.0012,20.55
10657937432400,26907,-9.7436,0.1149,-0.4881,0.0892,-0.0476,-0.0244,20.58
10657949880300,26918,-9.7986,0.1244,-0.4630,0.0672,-0.0501,-0.0562,20.58
10657961294900,26930,-9.8297,0.1017,-0.4905,0.0696,-0.0574,-0.0550,20.58
10657972142700,26941,-9.7807,0.0909,-0.5145,0.0965,-0.0415,-0.0195,20.58
10657983101700,26952,-9.7699,0.1172,-0.5097,0.0977,-0.0476,-0.0159,20.56
10657994883100,26964,-9.7962,0.1484,-0.5061,0.1075,-0.0342,-0.0147,20.56
10658005410000,26975,-9.7723,0.1089,-0.5372,0.0904,-0.0599,-0.0403,20.54
10658018850700,26986,-9.7675,0.1017,-0.5264,0.0953,-0.0489,-0.0232,20.57
10658028025000,26997,-9.8357,0.1113,-0.4869,0.0867,-0.0574,-0.0220,20.57
10658039859700,27009,-9.8381,0.1101,-0.4798,0.0977,-0.0586,0.0110,20.58
10658051342000,27020,-9.7723,0.0742,-0.4690,0.1075,-0.0635,0.0305,20.58
10658062578700,27031,-9.7412,0.1184,-0.4558,0.0965,-0.0562,0.0086,20.61
10658073935500,27043,-9.7783,0.0945,-0.4427,0.0782,-0.0513,-0.0147,20.61
10658084952800,27054,-9.7974,0.0814,-0.4714,0.0721,-0.0525,-0.0293,20.56
10658096963800,27065,-9.7938,0.0802,-0.5085,0.0648,-0.0586,-0.0318,20.59
10658107362600,27077,-9.7531,0.1041,-0.5695,0.0880,-0.0354,-0.0195,20.59
10658119042300,27088,-9.7843,0.1364,-0.5085,0.0867,-0.0342,-0.0195,20.57
10658130641700,27100,-9.7926,0.1340,-0.4893,0.0684,-0.0452,-0.0342,20.57
10658141843100,27111,-9.7819,0.1507,-0.4845,0.0599,-0.0525,-0.0367,20.53
10658153001600,27122,-9.7938,0.1567,-0.4893,0.0513,-0.0709,-0.0354,20.53
10658165286500,27134,-9.8010,0.1268,-0.5492,0.0574,-0.0452,-0.0342,20.59
10658175946600,27145,-9.7508,0.1089,-0.4989,0.0941,-0.0342,0.0024,20.56
10658186377600,27156,-9.7388,0.1639,-0.4857,0.0562,-0.0391,-0.0452,20.56
10658197636700,27167,-9.7854,0.2824,-0.5061,0.0391,-0.0354,-0.0672,20.52
10658209745400,27179,-9.7962,0.3589,-0.5683,0.0648,0.0098,-0.0574,20.52
10658220630400,27190,-9.7699,0.3398,-0.4750,0.0819,0.0525,-0.0452,20.60
10658232804700,27202,-9.7854,0.2907,-0.4355,0.0403,0.0232,-0.0819,20.60
10658244274300,27213,-9.8166,0.1448,-0.5037,0.0391,-0.0037,-0.0648,20.57
10658254972800,27224,-9.7866,0.1424,-0.5647,0.0513,-0.0293,-0.0464,20.53
10658267264400,27236,-9.7615,0.2321,-0.5791,0.0660,-0.0220,-0.0257,20.53
10658278328800,27247,-9.7866,0.1627,-0.5527,0.0501,-0.0269,-0.0391,20.56
10658289704200,27258,-9.8201,0.0431,-0.5910,0.0672,-0.0391,-0.0134,20.56
10658301507200,27269,-9.8010,0.0215,-0.6221,0.0867,-0.0269,0.0195,20.54
10658312457700,27281,-9.7795,-0.0024,-0.5671,0.0745,-0.0415,0.0171,20.54
10658322891100,27292,-9.7627,0.0251,-0.5300,0.0489,-0.0831,0.0037,20.58
10658334895000,27303,-9.7711,0.1005,-0.5240,0.0550,-0.0770,-0.0024,20.58
10658346498700,27315,-9.7843,0.0275,-0.5599,0.0867,-0.0464,0.0061,20.58
10658357373900,27326,-9.7843,0.0335,-0.5635,0.0880,-0.0476,0.0159,20.56
10658368508500,27338,-9.7783,-0.0036,-0.5145,0.0782,-0.0367,0.0110,20.56
10658380274100,27349,-9.7986,0.0120,-0.4678,0.0660,-0.0806,0.0134,20.56
10658391408900,27360,-9.8154,0.1196,-0.4534,0.0635,-0.0892,0.0134,20.56
10658402324000,27372,-9.7914,0.1101,-0.4391,0.0660,-0.0843,0.0122,20.54
10658414054100,27383,-9.7783,0.0586,-0.4834,0.0770,-0.0916,0.0098,20.54
10658425422800,27394,-9.7854,0.0431,-0.5348,0.1161,-0.0855,0.0440,20.54
10658435884000,27405,-9.7759,0.0502,-0.5180,0.0990,-0.0538,0.0159,20.56
10658448166500,27417,-9.7819,0.1412,-0.5001,0.0929,-0.0733,0.0122,20.56
10658459054200,27428,-9.7579,0.2082,-0.4893,0.0806,-0.0586,0.0012,20.54
10658470487600,27439,-9.7663,0.1591,-0.4977,0.0757,-0.0440,-0.0171,20.54
10658482804100,27451,-9.7890,0.1579,-0.5216,0.1038,-0.0440,0.0012,20.58
10658493347700,27462,-9.7843,0.1208,-0.5348,0.0867,-0.0464,-0.0012,20.58
10658504086600,27473,-9.8010,0.1017,-0.5635,0.0660,-0.0586,-0.0293,20.59
10658516095200,27485,-9.7531,0.1771,-0.6006,0.0660,-0.0525,-0.0244,20.54
10658526968400,27496,-9.7543,0.1268,-0.5874,0.0745,-0.0415,-0.0342,20.54
10658538208500,27507,-9.7843,0.1699,-0.5874,0.0880,-0.0257,-0.0305,20.57
10658551132700,27519,-9.7962,0.1974,-0.5827,0.1051,-0.0195,-0.0147,20.57
10658561610700,27530,-9.7759,0.1651,-0.5539,0.0831,-0.0379,-0.0367,20.61
10658571876700,27541,-9.7807,0.1519,-0.6138,0.0916,-0.0367,-0.0391,20.61
10658584567500,27553,-9.7819,0.1017,-0.6712,0.1100,-0.0342,0.0171,20.56
10658594794000,27564,-9.8118,0.0790,-0.6054,0.0867,-0.0452,-0.0061,20.52
10658605708800,27575,-9.7819,0.1627,-0.6209,0.0855,-0.0562,-0.0012,20.52
10658618454300,27587,-9.7591,0.1902,-0.5815,0.1222,-0.0354,0.0098,20.53
10658629231800,27598,-9.7531,0.2500,-0.4810,0.1014,-0.0501,-0.0305,20.53
10658640779100,27609,-9.7711,0.2943,-0.5001,0.0819,-0.0684,-0.0599,20.56
10658651428700,27621,-9.7747,0.2584,-0.5671,0.1075,-0.0635,-0.0305,20.56
10658662330000,27632,-9.7687,0.2285,-0.5456,0.1100,-0.0318,-0.0098,20.56
10658673828500,27643,-9.7543,0.1507,-0.5551,0.0855,-0.0208,-0.0513,20.56
10658684978100,27655,-9.8178,0.1759,-0.5336,0.1100,-0.0024,-0.0428,20.58
10658696151100,27666,-9.8046,0.1854,-0.5420,0.1307,0.0232,-0.0122,20.57
10658707342600,27677,-9.7615,0.2118,-0.5073,0.1124,0.0305,-0.0440,20.57
10658719152900,27689,-9.7304,0.1436,-0.4032,0.0965,0.0476,-0.0782,20.59
10658730942300,27700,-9.7675,0.1376,-0.3840,0.0550,0.0415,-0.1368,20.59
10658742235600,27711,-9.7974,0.1998,-0.5420,0.0623,0.0660,-0.1344,20.55
10658753336300,27723,-9.7711,0.1555,-0.5886,0.0550,0.0721,-0.1429,20.55
10658765957200,27734,-9.7687,0.1388,-0.7370,0.0354,0.0721,-0.1710,20.52
10658776158900,27745,-9.7699,0.1364,-0.7896,0.0293,0.0684,-0.1686,20.55
10658786717100,27757,-9.8046,0.1591,-0.8506,0.0244,0.0281,-0.1478,20.55
10658798771200,27768,-9.7962,0.0921,-0.8518,0.0672,0.0122,-0.0757,20.59
10658810368000,27779,-9.7627,0.0455,-0.8351,0.0623,-0.0183,-0.0452,20.59
10658821316300,27791,-9.7771,0.0598,-0.8602,0.0660,-0.0232,-0.0257,20.57
10658833186700,27802,-9.7687,-0.0191,-0.8351,0.0806,-0.0232,0.0122,20.57
10658844574800,27813,-9.7735,-0.0263,-0.8279,0.0831,-0.0305,0.0073,20.55
10658854789200,27825,-9.7687,0.1484,-0.7262,0.1210,0.0086,0.0330,20.55
10658867066800,27836,-9.7388,0.1783,-0.6508,0.1454,0.0476,0.0672,20.55
10658878408100,27847,-9.7938,0.2261,-0.6461,0.1173,0.0476,0.0648,20.55
10658888899800,27859,-9.7866,0.1783,-0.6891,0.1063,0.0244,0.0501,20.55
10658900636500,27870,-9.7460,0.0263,-0.7011,0.0977,0.0122,0.0354,20.57
10658912619600,27881,-9.7783,0.0287,-0.6508,0.1075,0.0098,0.0220,20.57
10658923288900,27892,-9.7436,0.0443,-0.6102,0.1100,0.0073,0.0195,20.56
10658935331600,27904,-9.8261,0.1998,-0.7238,0.0892,-0.0049,0.0293,20.56
10658946097100,27915,-9.7854,0.1400,-0.7561,0.0977,0.0220,0.0586,20.56
10658957832800,27927,-9.7460,0.0526,-0.7358,0.0733,0.0244,0.0293,20.57
10658968798900,27938,-9.7065,0.0562,-0.7226,0.0257,0.0281,-0.0330,20.57
10658980406600,27949,-9.7352,0.1101,-0.7753,-0.0159,0.0244,-0.0819,20.55
10658991602000,27961,-9.7627,0.0239,-0.7992,0.0195,0.0562,-0.0379,20.55
10659002426300,27972,-9.7854,-0.0024,-0.7490,0.0086,0.0330,-0.0538,20.58
10659014653200,27983,-9.7890,0.1137,-0.7394,0.0489,0.0305,-0.0476,20.58
10659025104700,27995,-9.7950,0.3924,-0.7286,0.0635,0.0513,0.0061,20.54
10659036746700,28006,-9.7986,0.2357,-0.7884,0.0305,0.0330,-0.0012,20.54
10659047877100,28017,-9.7639,0.1005,-0.8937,0.0318,0.0183,0.0073,20.54
10659059640300,28029,-9.7400,0.0491,-0.9416,0.0367,0.0171,0.0232,20.55
10659070343200,28040,-9.7017,0.0849,-0.9751,0.0428,-0.0024,0.0012,20.55
10659082567300,28051,-9.7065,0.1543,-0.9763,0.0538,-0.0134,-0.0073,20.56
10659093233500,28062,-9.7436,0.1842,-1.0074,0.0476,-0.0159,-0.0024,20.56
10659104154100,28074,-9.7268,0.1950,-1.0074,-0.0293,-0.0599,-0.0354,20.56
10659116196600,28085,-9.6945,0.2357,-1.0193,-0.0220,-0.0354,-0.0110,20.55
10659126590900,28096,-9.7280,0.2800,-1.0205,-0.0476,-0.0513,-0.0599,20.55
10659138196700,28108,-9.8082,0.5228,-0.9679,-0.0061,-0.0440,-0.0220,20.56
10659150307000,28119,-9.8178,0.5324,-0.8590,0.0159,-0.0538,0.0623,20.56
10659161766900,28130,-9.7376,0.2776,-1.0074,-0.0159,-0.0916,0.0745,20.58
10659172471400,28142,-9.7220,-0.0443,-1.1773,-0.0208,-0.1246,0.0843,20.58
10659183985100,28153,-9.7017,-0.0622,-1.1892,0.0049,-0.1393,0.0929,20.58
10659195728200,28164,-9.7519,0.1268,-1.0576,0.0684,-0.1381,0.1002,20.52
10659206144400,28176,-9.7519,0.1232,-1.0098,0.0623,-0.1503,0.0965,20.52
10659218729600,28187,-9.7256,0.0407,-0.9655,0.0501,-0.1344,0.0916,20.54
10659228947100,28198,-9.7256,0.0395,-0.9583,0.0244,-0.1429,0.0538,20.54
10659239943700,28210,-9.7208,0.2273,-0.9320,0.0391,-0.1258,0.0342,20.56
10659252166500,28221,-9.6706,0.3182,-0.7980,0.0281,-0.0977,0.0073,20.56
10659263181600,28232,-9.6802,0.5109,-0.7860,-0.0073,-0.0880,-0.0415,20.54
10659274657100,28244,-9.8620,0.2070,-0.6544,-0.0159,-0.0635,-0.0586,20.55
10659285570000,28255,-9.7807,0.2500,-0.7178,0.0024,-0.0855,-0.0257,20.55
10659297214000,28266,-9.6622,0.1424,-0.7525,0.0012,-0.0990,-0.0440,20.57
10659308813300,28277,-9.7161,0.1232,-0.7920,-0.0257,-0.1234,-0.1112,20.57
10659319533700,28289,-9.8058,0.1998,-0.7908,0.0086,-0.1185,-0.1087,20.55
10659331179900,28300,-9.7472,0.1053,-0.7801,0.0208,-0.1246,-0.0965,20.55
10659342775800,28311,-9.7974,-0.0203,-0.8339,0.0147,-0.1344,-0.0904,20.57
10659353436300,28323,-9.7926,0.0191,-0.8375,0.0464,-0.1368,-0.0403,20.57
10659366549200,28334,-9.7639,-0.0191,-0.8411,0.0281,-0.1087,-0.0709,20.55
10659376719200,28345,-9.7723,0.0897,-0.8028,0.0195,-0.1014,-0.0757,20.54
10659387433300,28357,-9.7986,0.0586,-0.7741,-0.0073,-0.1161,-0.0660,20.54
10659398991400,28368,-9.7843,0.1005,-0.7310,-0.0110,-0.1417,-0.0330,20.55
10659410651600,28379,-9.7902,0.1029,-0.6975,-0.0037,-0.1381,-0.0110,20.55
10659421643600,28391,-9.7735,0.0897,-0.6796,0.0012,-0.1478,0.0134,20.59
10659433436100,28402,-9.7771,0.2405,-0.6604,0.0257,-0.1368,0.0391,20.59
10659444702700,28413,-9.7831,0.3015,-0.6185,0.0244,-0.1051,0.0195,20.56
10659455579700,28425,-9.7496,0.1866,-0.6221,0.0318,-0.0867,0.0147,20.59
10659467024000,28436,-9.7687,0.1268,-0.6221,0.0073,-0.0965,-0.0281,20.59
10659478664900,28447,-9.8225,0.2704,-0.6269,0.0134,-0.1002,-0.0147,20.53
10659489751300,28459,-9.7519,0.2931,-0.5719,0.0195,-0.0941,0.0244,20.53
10659501955400,28470,-9.7531,0.1711,-0.6197,-0.0244,-0.1014,-0.0086,20.57
10659512935800,28481,-9.7519,0.0802,-0.7322,-0.0379,-0.1075,-0.0183,20.57
10659523184200,28493,-9.7591,0.1149,-0.7370,-0.0525,-0.1002,-0.0293,20.56
10659535661800,28504,-9.7244,0.1567,-0.7107,-0.0684,-0.0819,-0.0476,20.58
10659546952500,28515,-9.7843,0.1436,-0.7155,-0.0464,-0.0745,-0.0648,20.58
10659557130300,28527,-9.7807,0.0479,-0.7047,-0.0305,-0.0709,-0.0721,20.57
10659568754400,28538,-9.7747,-0.0347,-0.6951,-0.0513,-0.0819,-0.0831,20.57
10659580895300,28549,-9.7759,-0.0287,-0.6903,-0.0415,-0.0867,-0.0782,20.57
10659591624200,28561,-9.7819,0.1376,-0.6808,-0.0562,-0.1002,-0.1002,20.57
10659602995100,28572,-9.7711,0.3075,-0.6843,-0.0220,-0.0953,-0.0684,20.56
10659615488600,28584,-9.7699,0.2321,-0.7035,-0.0281,-0.0672,-0.0635,20.57
10659626127200,28595,-9.7819,0.2548,-0.7059,-0.0208,-0.0574,-0.0440,20.57
10659637077700,28606,-9.7819,0.2285,-0.7095,-0.0171,-0.0501,-0.0257,20.58
10659648523300,28618,-9.7878,0.1831,-0.7334,-0.0086,-0.0550,-0.0195,20.58
10659660216800,28629,-9.7603,0.1077,-0.7549,0.0012,-0.0550,-0.0293,20.54
10659670696500,28640,-9.7328,0.1316,-0.7466,-0.0086,-0.0501,-0.0538,20.54
10659683015800,28652,-9.7352,0.3529,-0.6963,-0.0110,-0.0440,-0.0562,20.54
10659694398100,28663,-9.7328,0.4534,-0.6173,-0.0086,-0.0367,-0.0208,20.54
10659704588700,28674,-9.8489,0.3446,-0.6449,-0.0073,-0.0635,0.0403,20.53
10659716853600,28685,-9.7448,0.3003,-0.6676,-0.0024,-0.0745,0.0538,20.57
10659728162000,28697,-9.7519,0.3266,-0.6664,-0.0122,-0.0684,0.0195,20.57
10659738700900,28708,-9.7735,0.4546,-0.6401,-0.0086,-0.0574,0.0098,20.51
10659750917800,28719,-9.7508,0.4068,-0.6568,-0.0073,-0.0403,0.0257,20.51
10659762298100,28731,-9.7304,0.3386,-0.7023,-0.0183,-0.0354,0.0061,20.55
10659772532800,28742,-9.7914,0.3541,-0.6604,-0.0037,-0.0305,0.0183,20.55
10659784629700,28753,-9.7866,0.3290,-0.6508,-0.0061,-0.0574,0.0354,20.57
10659796024100,28765,-9.7986,0.3123,-0.6520,-0.0330,-0.0794,-0.0024,20.55
10659806304000,28776,-9.7101,0.3206,-0.7071,-0.0232,-0.0941,0.0293,20.55
10659818185100,28787,-9.6945,0.1340,-0.7884,-0.0489,-0.0806,-0.0049,20.55
10659829553700,28799,-9.7986,0.1699,-0.7944,-0.0586,-0.0916,-0.0269,20.55
10659840799800,28810,-9.7723,0.2369,-0.8088,-0.0440,-0.0867,0.0012,20.56
10659852605600,28821,-9.7615,0.0921,-0.8231,-0.0403,-0.0782,-0.0024,20.56
10659863707800,28833,-9.7914,0.1771,-0.7083,-0.0293,-0.0880,-0.0122,20.55
10659874787800,28844,-9.7519,0.1208,-0.6820,-0.0208,-0.0770,-0.0293,20.52
10659886148800,28855,-9.8166,0.1974,-0.6664,-0.0122,-0.0794,-0.0342,20.52
10659899143600,28867,-9.7543,0.2704,-0.6700,-0.0122,-0.0867,-0.0318,20.58
10659909219500,28878,-9.7184,0.1161,-0.7190,-0.0281,-0.0867,-0.0318,20.58
10659919818800,28889,-9.7854,-0.0347,-0.7765,-0.0464,-0.0990,-0.0538,20.57
10659932103800,28901,-9.8225,0.0287,-0.7836,-0.0037,-0.1014,-0.0147,20.57
10659942836800,28912,-9.7400,0.1017,-0.7573,0.0171,-0.0965,-0.0061,20.59
10659953974600,28923,-9.7986,0.3242,-0.6150,0.0281,-0.0770,-0.0012,20.57
10659966243100,28935,-9.7627,0.2596,-0.5946,-0.0049,-0.0843,-0.0098,20.57
10659977324600,28946,-9.7496,0.1519,-0.6425,-0.0257,-0.0831,-0.0367,20.55
10659988155100,28957,-9.7998,0.1591,-0.6748,-0.0281,-0.0941,-0.0367,20.55
10660001092300,28969,-9.8010,0.2070,-0.6616,-0.0134,-0.0806,-0.0134,20.57
10660010881100,28980,-9.7603,0.1771,-0.6544,-0.0073,-0.0660,-0.0159,20.57
10660022215600,28991,-9.7675,0.2177,-0.6341,0.0000,-0.0513,-0.0232,20.54
10660034136500,29003,-9.7795,0.2082,-0.5647,0.0147,-0.0452,-0.0220,20.54
10660045037700,29014,-9.7854,0.3936,-0.5216,0.0134,-0.0599,-0.0195,20.56
10660056003000,29025,-9.7699,0.3709,-0.5527,-0.0037,-0.0672,-0.0183,20.54
10660068546800,29037,-9.7567,0.3147,-0.6126,-0.0208,-0.0660,-0.0354,20.54
10660079509700,29048,-9.7735,0.3601,-0.6269,-0.0257,-0.0648,-0.0391,20.53
10660089836500,29059,-9.7651,0.2979,-0.6305,-0.0305,-0.0489,-0.0489,20.53
10660102296200,29071,-9.7890,0.2919,-0.6281,-0.0330,-0.0489,-0.0623,20.57
10660113061600,29082,-9.7795,0.4008,-0.6054,-0.0037,-0.0538,-0.0195,20.57
10660123958800,29093,-9.7783,0.3625,-0.5767,-0.0183,-0.0428,-0.0305,20.55
10660136258800,29105,-9.7854,0.4415,-0.5539,-0.0220,-0.0476,-0.0244,20.54
10660146570200,29116,-9.7376,0.4522,-0.5348,-0.0208,-0.0464,-0.0122,20.54
10660157933900,29127,-9.7843,0.4259,-0.5252,-0.0391,-0.0562,-0.0232,20.58
10660169599200,29139,-9.7950,0.4475,-0.5180,-0.0501,-0.0648,-0.0183,20.58
10660181654800,29150,-9.7519,0.4056,-0.5420,-0.0550,-0.0733,-0.0049,20.57
10660192002700,29161,-9.7914,0.3541,-0.5958,-0.0648,-0.0660,-0.0232,20.57
10660203758800,29173,-9.7508,0.2728,-0.6628,-0.0696,-0.0819,-0.0232,20.58
10660214202600,29184,-9.7244,0.1113,-0.7406,-0.0709,-0.0855,-0.0195,20.54
10660226156700,29195,-9.7220,0.0562,-0.7693,-0.0489,-0.0819,-0.0049,20.54
10660237212500,29207,-9.7687,0.0502,-0.7442,-0.0501,-0.0696,-0.0415,20.58
10660249073900,29218,-9.8213,0.2082,-0.6820,-0.0330,-0.0867,-0.0318,20.58
10660260861900,29229,-9.7843,0.2883,-0.6281,-0.0281,-0.0941,-0.0073,20.59
10660271293100,29241,-9.7950,0.2022,-0.6054,-0.0428,-0.0990,-0.0195,20.59
10660282944100,29252,-9.7974,0.3278,-0.5838,-0.0391,-0.1063,-0.0183,20.58
10660294363500,29263,-9.7986,0.3075,-0.5228,-0.0489,-0.0929,-0.0464,20.55
10660305004000,29275,-9.7759,0.2991,-0.5611,-0.0452,-0.1002,-0.0269,20.55
10660317412000,29286,-9.7161,0.2512,-0.5886,-0.0415,-0.0880,-0.0098,20.56
10660327791100,29297,-9.7950,0.2201,-0.5671,-0.0403,-0.0855,-0.0122,20.56
10660339199900,29309,-9.7998,0.2632,-0.5444,-0.0232,-0.0904,0.0000,20.56
10660351397900,29320,-9.7854,0.2812,-0.5563,-0.0318,-0.0990,-0.0024,20.56
10660362107900,29331,-9.7579,0.2465,-0.6090,-0.0391,-0.0892,-0.0208,20.57
10660372894200,29343,-9.7663,0.2417,-0.6640,-0.0513,-0.0904,-0.0476,20.57
10660385518600,29354,-9.8154,0.1460,-0.7310,-0.0489,-0.0941,-0.0501,20.55
10660395935200,29365,-9.7496,0.0215,-0.8028,-0.0134,-0.0745,-0.0415,20.58
10660407055200,29377,-9.7256,0.0778,-0.7956,0.0012,-0.0611,-0.0672,20.58
10660419151400,29388,-9.8094,0.2333,-0.6508,0.0086,-0.0574,-0.0562,20.54
10660430557600,29399,-9.8046,0.2166,-0.5719,0.0024,-0.0660,-0.0342,20.54
10660441155500,29411,-9.7627,0.1795,-0.5910,0.0012,-0.0635,-0.0403,20.55
10660452839900,29422,-9.7878,0.3266,-0.5192,0.0061,-0.0550,-0.0513,20.55
10660464447500,29433,-9.7244,0.2584,-0.6293,-0.0110,-0.0623,-0.0574,20.58
10660474926300,29444,-9.7304,0.2201,-0.6628,-0.0024,-0.0440,-0.0696,20.56
10660486413500,29456,-9.7747,0.3087,-0.6281,-0.0098,-0.0330,-0.0965,20.56
10660498479000,29467,-9.8178,0.3840,-0.5862,-0.0073,-0.0318,-0.0965,20.53
10660509167400,29478,-9.7962,0.4558,-0.5192,-0.0024,-0.0403,-0.0648,20.53
10660520333700,29490,-9.7543,0.4845,-0.4941,-0.0208,-0.0696,-0.0379,20.57
10660532447000,29501,-9.8094,0.2979,-0.5755,-0.0183,-0.0464,-0.0464,20.57
10660544014100,29512,-9.7268,0.2764,-0.5898,-0.0037,-0.0403,-0.0220,20.54
10660554348100,29524,-9.7555,0.2285,-0.6114,-0.0293,-0.0367,-0.0660,20.56
10660566270000,29535,-9.7962,0.1424,-0.6712,-0.0403,-0.0428,-0.0819,20.56
10660577254100,29546,-9.7926,0.1388,-0.6772,-0.0244,-0.0452,-0.0586,20.55
10660588327200,29558,-9.7854,0.2010,-0.6437,-0.0305,-0.0635,-0.0342,20.55
10660600359800,29569,-9.7807,0.2010,-0.6664,-0.0244,-0.0623,-0.0452,20.56
10660612121600,29580,-9.7460,0.2309,-0.6843,-0.0244,-0.0794,-0.0403,20.56
10660622128100,29592,-9.7424,0.2536,-0.6580,-0.0318,-0.0770,-0.0440,20.59
10660634431000,29603,-9.7747,0.2094,-0.6568,-0.0464,-0.0965,-0.0440,20.57
10660645810500,29614,-9.7807,0.1077,-0.7490,-0.0220,-0.0623,-0.0586,20.57
10660656245700,29626,-9.7675,0.1256,-0.7298,-0.0061,-0.0623,-0.0684,20.56
10660668825600,29637,-9.7890,0.2130,-0.6377,-0.0122,-0.0623,-0.0733,20.56
10660679314000,29648,-9.8154,0.2524,-0.5767,-0.0208,-0.0770,-0.0489,20.60
10660690136100,29660,-9.7795,0.2106,-0.6006,-0.0171,-0.0819,-0.0220,20.60
10660702234400,29671,-9.7723,0.0802,-0.6760,-0.0195,-0.0819,-0.0379,20.59
10660713703600,29682,-9.7340,0.3494,-0.5994,-0.0110,-0.0904,-0.0391,20.59
10660724304000,29694,-9.7448,0.3159,-0.5886,-0.0525,-0.0965,-0.0623,20.57
10660735577900,29705,-9.7639,0.2536,-0.5994,-0.0440,-0.0660,-0.0733,20.58
10660748306300,29716,-9.8237,0.2824,-0.5157,-0.0220,-0.0513,-0.0464,20.58
10660758324500,29728,-9.8273,0.3159,-0.4355,-0.0244,-0.0550,-0.0244,20.57
10660770563500,29739,-9.7854,0.2847,-0.4259,-0.0354,-0.0611,-0.0379,20.57
10660781727500,29750,-9.7819,0.2907,-0.4164,-0.0489,-0.0672,-0.0574,20.57
10660792567300,29762,-9.7771,0.2812,-0.4403,-0.0684,-0.0929,-0.0611,20.57
10660804546600,29773,-9.7962,0.3350,-0.4702,-0.0709,-0.0867,-0.0660,20.55
10660816362800,29784,-9.8130,0.2692,-0.5348,-0.0684,-0.0831,-0.0611,20.54
10660826556400,29796,-9.7819,0.2465,-0.5659,-0.0525,-0.0660,-0.0538,20.54
10660837707000,29807,-9.7831,0.1579,-0.5623,-0.0501,-0.0623,-0.0464,20.55
10660849967400,29818,-9.8297,0.1507,-0.5180,-0.0550,-0.0611,-0.0623,20.55
10660861364200,29830,-9.7819,0.2082,-0.4881,-0.0538,-0.0929,-0.0330,20.55
10660871870200,29841,-9.7436,0.2584,-0.4570,-0.0635,-0.1087,-0.0330,20.55
10660883724400,29852,-9.7819,0.2536,-0.4331,-0.0880,-0.1283,-0.0513,20.54
10660894913100,29864,-9.7783,0.2070,-0.5049,-0.0990,-0.1258,-0.0599,20.57
10660905676300,29875,-9.7627,0.1890,-0.5348,-0.0831,-0.1038,-0.0635,20.57
10660917939100,29886,-9.7627,0.2010,-0.5228,-0.0806,-0.0990,-0.0745,20.55
10660929203400,29898,-9.8620,0.1986,-0.5264,-0.0660,-0.0806,-0.0819,20.55
10660939877800,29909,-9.7878,0.2776,-0.4857,-0.0586,-0.0953,-0.0586,20.56
10660951598600,29921,-9.6981,0.2644,-0.4929,-0.0794,-0.1124,-0.0525,20.56
10660962971500,29932,-9.8166,0.0921,-0.5587,-0.0611,-0.0782,-0.0672,20.56
10660974597000,29943,-9.8022,0.1735,-0.5097,-0.0513,-0.0806,-0.0648,20.55
10660985220800,29955,-9.7795,0.1854,-0.4845,-0.0782,-0.1148,-0.0611,20.55
10660997064700,29966,-9.7077,0.1101,-0.5707,-0.0757,-0.1075,-0.0550,20.54
10661008193800,29977,-9.7603,0.0479,-0.6126,-0.0550,-0.0794,-0.0513,20.54
10661020795400,29989,-9.8094,0.0431,-0.6269,-0.0428,-0.0440,-0.0880,20.55
10661030877700,30000,-9.7902,0.1639,-0.5815,-0.0440,-0.0305,-0.1222,20.55
10661042806900,30011,-9.7603,0.2034,-0.5468,-0.0721,-0.0586,-0.1356,20.57
10661053714300,30023,-9.8034,0.0287,-0.5145,-0.0367,-0.0440,-0.0953,20.52
10661065391700,30034,-9.7651,0.1137,-0.4319,-0.0648,-0.0880,-0.0892,20.52
10661075977200,30045,-9.7711,0.1615,-0.4451,-0.0831,-0.0843,-0.0965,20.56
10661087505100,30057,-9.8166,0.1735,-0.4810,-0.0745,-0.0819,-0.0965,20.56
10661099351700,30068,-9.8154,0.1735,-0.4977,-0.0660,-0.0916,-0.0733,20.56
10661110172200,30079,-9.8261,0.0682,-0.5085,-0.0538,-0.0745,-0.0574,20.56
10661121141500,30091,-9.8094,-0.0108,-0.5587,-0.0244,-0.0648,-0.0330,20.59
10661133530300,30102,-9.7627,0.0395,-0.4618,0.0024,-0.0648,-0.0208,20.59
10661144405600,30113,-9.7902,0.1519,-0.4116,-0.0293,-0.0648,-0.0452,20.57
10661155323700,30125,-9.8070,0.1615,-0.4152,-0.0415,-0.0782,-0.0623,20.60
10661166231400,30136,-9.7567,0.1388,-0.4977,-0.0574,-0.0904,-0.0684,20.60
10661178644800,30147,-9.7484,0.1412,-0.4857,-0.0672,-0.0892,-0.0721,20.57
10661189329100,30159,-9.8118,0.0526,-0.5252,-0.0538,-0.0660,-0.0770,20.57
10661200733600,30170,-9.8405,0.0179,-0.5121,-0.0281,-0.0342,-0.0574,20.57
10661212078200,30181,-9.7747,0.1184,-0.4451,-0.0574,-0.0757,-0.0501,20.57
10661223329700,30193,-9.8261,0.1065,-0.3625,-0.0489,-0.0476,-0.0281,20.57
10661235033400,30204,-9.7603,0.2082,-0.3302,-0.0550,-0.0586,-0.0391,20.61
10661246470100,30215,-9.7567,0.2046,-0.4271,-0.0648,-0.0684,-0.0782,20.61
10661257488100,30227,-9.8465,0.1208,-0.4786,-0.0599,-0.0464,-0.0672,20.59
10661269774000,30238,-9.8082,0.0909,-0.5192,-0.0831,-0.0757,-0.0367,20.59
10661280677600,30249,-9.7388,0.0766,-0.5551,-0.0770,-0.0574,-0.0428,20.58
10661291811100,30261,-9.7508,0.0299,-0.5456,-0.0611,-0.0574,-0.0538,20.58
10661303102500,30272,-9.8082,0.0562,-0.4953,-0.0452,-0.0403,-0.0648,20.57
10661315029600,30283,-9.7854,0.0275,-0.5575,-0.0415,-0.0147,-0.0843,20.53
10661325835200,30295,-9.7747,0.0622,-0.5025,-0.0623,-0.0440,-0.0672,20.53
10661336941300,30306,-9.7998,0.0754,-0.5468,-0.0745,-0.0586,-0.0550,20.55
10661348907400,30317,-9.8142,0.0933,-0.5276,-0.0599,-0.0452,-0.0440,20.55
10661360024200,30329,-9.7484,0.1137,-0.5420,-0.0709,-0.0599,-0.0586,20.58
10661371781200,30340,-9.7651,0.0718,-0.5468,-0.0806,-0.0428,-0.0709,20.58
10661382663500,30351,-9.8178,0.0586,-0.5061,-0.0684,-0.0489,-0.0599,20.57
10661394118200,30363,-9.7651,0.1424,-0.4738,-0.0745,-0.0635,-0.0770,20.61
10661404419500,30374,-9.7819,0.0945,-0.5240,-0.0757,-0.0440,-0.0904,20.61
10661415964500,30385,-9.7819,0.0084,-0.5719,-0.0892,-0.0452,-0.0990,20.59
10661427827800,30397,-9.8297,-0.0156,-0.5432,-0.0794,-0.0269,-0.0806,20.59
10661438764800,30408,-9.8058,-0.0132,-0.5312,-0.0794,-0.0696,-0.0415,20.58
10661450503200,30419,-9.7627,-0.0371,-0.5575,-0.0745,-0.0525,-0.0367,20.58
10661461886900,30431,-9.7484,-0.0084,-0.5157,-0.0709,-0.0623,-0.0440,20.58
10661472343000,30442,-9.8094,0.1472,-0.4056,-0.1002,-0.0733,-0.0843,20.56
10661484175300,30453,-9.8070,0.0550,-0.4379,-0.1038,-0.0721,-0.0709,20.56
10661495124000,30465,-9.7771,-0.0096,-0.4702,-0.1112,-0.0782,-0.0831,20.58
10661506514500,30476,-9.8297,-0.0455,-0.4834,-0.1173,-0.0599,-0.0916,20.58
10661518677400,30487,-9.8321,-0.0251,-0.5276,-0.1075,-0.0709,-0.0745,20.57
10661530275600,30499,-9.7472,0.0526,-0.4917,-0.0965,-0.0794,-0.0586,20.57
10661540331200,30510,-9.7388,0.0873,-0.4187,-0.1112,-0.0929,-0.0745,20.54
10661552531300,30521,-9.7843,0.0120,-0.5097,-0.1136,-0.0684,-0.0843,20.54
10661563670900,30533,-9.7914,-0.0670,-0.5168,-0.0892,-0.0550,-0.0819,20.59
10661574782800,30544,-9.7998,-0.0921,-0.5492,-0.1246,-0.0525,-0.0709,20.57
10661586799300,30555,-9.8046,-0.0718,-0.5180,-0.1112,-0.0452,-0.0648,20.57
10661598195600,30567,-9.7866,-0.0491,-0.5001,-0.1491,-0.0929,-0.0782,20.56
10661609361800,30578,-9.7974,-0.1017,-0.5755,-0.1503,-0.0476,-0.0709,20.56
10661619958200,30590,-9.7843,-0.1161,-0.5635,-0.1295,-0.0440,-0.0562,20.56
10661632445800,30601,-9.7603,-0.0993,-0.5180,-0.1222,-0.0525,-0.0452,20.56
10661642899800,30612,-9.7998,-0.1735,-0.5288,-0.0672,-0.0122,-0.0232,20.53
10661654130900,30623,-9.7819,-0.0610,-0.4798,-0.0941,-0.0293,-0.0586,20.55
10661666593300,30635,-9.7807,-0.0179,-0.4822,-0.1454,-0.0501,-0.0660,20.55
10661677641400,30646,-9.7843,-0.0311,-0.4905,-0.1344,-0.0476,-0.0367,20.59
10661689220600,30657,-9.7735,-0.0634,-0.5109,-0.1063,-0.0281,-0.0232,20.59
10661700927800,30669,-9.7735,-0.0407,-0.5037,-0.0684,-0.0330,-0.0330,20.55
10661711153600,30680,-9.8142,-0.0766,-0.4750,-0.0660,-0.0415,-0.0428,20.55
10661722627700,30691,-9.8249,-0.0921,-0.4534,-0.0586,-0.0501,-0.0281,20.57
10661734721300,30703,-9.7759,-0.0036,-0.3410,-0.0782,-0.0501,-0.0391,20.55
10661745609500,30714,-9.7902,0.0036,-0.3039,-0.1002,-0.0660,-0.0428,20.55
10661755699600,30725,-9.8022,0.0682,-0.3147,-0.1038,-0.0648,-0.0330,20.52
10661768094900,30737,-9.8285,0.0694,-0.3386,-0.0977,-0.0831,-0.0391,20.52
10661778902500,30748,-9.7866,-0.0323,-0.4211,-0.0709,-0.0709,-0.0562,20.57
10661790140700,30759,-9.7591,-0.0790,-0.4965,-0.0635,-0.0635,-0.0464,20.57
10661802279300,30771,-9.8046,-0.0586,-0.4774,-0.0562,-0.0391,-0.0599,20.56
10661813410000,30782,-9.7651,0.0538,-0.4391,-0.1356,-0.1026,-0.0208,20.54
10661823804000,30793,-9.7926,0.0610,-0.4271,-0.1124,-0.1075,-0.0379,20.54
10661836028500,30805,-9.8154,0.0108,-0.4475,-0.0929,-0.1075,-0.0391,20.59
10661846892900,30816,-9.8058,-0.0287,-0.4834,-0.0574,-0.1100,-0.0147,20.59
10661858996400,30827,-9.7759,-0.0072,-0.4965,-0.0538,-0.1148,-0.0244,20.57
10661870078000,30839,-9.7747,-0.0778,-0.5647,-0.0452,-0.0941,-0.0232,20.57
10661881353400,30850,-9.7902,-0.1448,-0.5958,-0.0574,-0.0867,-0.0379,20.57
10661892513500,30861,-9.8034,-0.1220,-0.5838,-0.0770,-0.1087,-0.0635,20.57
10661904273400,30873,-9.7615,-0.0622,-0.5815,-0.0660,-0.0538,-0.0599,20.55
10661914815200,30884,-9.7878,-0.0634,-0.5013,-0.0281,-0.0599,-0.0220,20.59
10661926577000,30895,-9.7807,-0.0742,-0.5264,-0.0354,-0.1026,-0.0098,20.59
10661937235600,30907,-9.7914,-0.1244,-0.5587,-0.0134,-0.0831,-0.0098,20.51
10661949399200,30918,-9.7926,-0.1376,-0.5145,0.0183,-0.0782,-0.0086,20.51
10661960581500,30929,-9.7866,-0.0969,-0.5527,-0.0208,-0.1026,-0.0195,20.61
10661971620900,30941,-9.7783,-0.0909,-0.5408,-0.0257,-0.0977,-0.0269,20.61
10661983050900,30952,-9.7926,-0.0814,-0.5886,0.0024,-0.1161,-0.0318,20.55
10661994518800,30963,-9.7807,-0.0814,-0.5121,-0.0037,-0.1063,-0.0208,20.58
10662005217600,30975,-9.7914,-0.0108,-0.4415,-0.0232,-0.1344,-0.0134,20.58
10662017673300,30986,-9.7914,0.0144,-0.4427,-0.0342,-0.1417,-0.0354,20.59
10662028594600,30997,-9.8022,0.0239,-0.4439,-0.0464,-0.1442,-0.0464,20.59
10662039462200,31009,-9.7831,0.0156,-0.4451,-0.0367,-0.1307,-0.0281,20.55
10662051053300,31020,-9.7519,0.0096,-0.4044,-0.0403,-0.1136,-0.0220,20.55
10662062641700,31031,-9.7854,0.0287,-0.4271,-0.0318,-0.0941,-0.0305,20.58
10662073635500,31043,-9.8094,0.0383,-0.3948,-0.0623,-0.0977,-0.0391,20.57
10662085629800,31054,-9.8082,0.0203,-0.4152,-0.0513,-0.0672,-0.0208,20.57
10662096486200,31065,-9.7854,-0.0084,-0.3852,-0.0208,-0.0672,-0.0257,20.59
10662107634300,31077,-9.7735,0.0036,-0.4331,-0.0391,-0.0721,-0.0476,20.59
10662119360500,31088,-9.7807,0.0227,-0.4558,-0.0415,-0.0489,-0.0428,20.58
10662130687400,31099,-9.7974,-0.0024,-0.3494,-0.0538,-0.0635,-0.0354,20.58
10662141291400,31111,-9.7986,-0.0144,-0.3829,-0.0672,-0.0892,-0.0415,20.56
10662153992000,31122,-9.8022,-0.0526,-0.4235,0.0208,-0.0733,-0.0440,20.59
10662164516300,31133,-9.7962,-0.0167,-0.4929,0.0098,-0.0623,-0.0391,20.59
10662175274500,31145,-9.7854,0.0132,-0.3829,0.0098,-0.0391,-0.0330,20.53
10662186774900,31156,-9.7926,0.0323,-0.3254,-0.0586,-0.0916,-0.0489,20.53
10662199491400,31167,-9.8070,-0.0048,-0.4116,-0.0574,-0.0782,-0.0305,20.59
10662209846200,31179,-9.7998,-0.0455,-0.3840,-0.0098,-0.0709,-0.0086,20.59
10662220697200,31190,-9.7902,-0.0227,-0.3721,0.0037,-0.0892,-0.0208,20.58
10662231561100,31201,-9.8154,-0.0455,-0.4044,0.0208,-0.0623,-0.0195,20.58
10662243603500,31213,-9.7926,-0.0263,-0.2764,0.0220,-0.0586,-0.0293,20.55
10662255451900,31224,-9.7974,-0.0287,-0.3266,0.0330,-0.0611,-0.0220,20.57
10662266943500,31235,-9.7819,-0.1161,-0.3577,0.0648,-0.0550,-0.0269,20.57
10662278238500,31247,-9.8070,-0.1340,-0.3230,0.0672,-0.0501,-0.0379,20.56
10662289778600,31258,-9.8094,-0.0670,-0.2500,0.0476,-0.0379,-0.0232,20.56
10662301080000,31269,-9.7866,0.0060,-0.3302,-0.0134,-0.0635,-0.0464,20.59
10662311539500,31281,-9.7938,0.0156,-0.3350,-0.0354,-0.0648,-0.0379,20.59
10662322210800,31292,-9.8142,0.0036,-0.3470,-0.0440,-0.0648,-0.0269,20.56
10662335178300,31303,-9.7854,-0.0359,-0.2632,-0.0220,-0.0721,-0.0513,20.59
10662345280700,31315,-9.8118,-0.0383,-0.2393,-0.0648,-0.0977,-0.0819,20.59
10662356998900,31326,-9.8285,-0.0179,-0.2776,-0.0892,-0.0733,-0.0550,20.54
10662375028900,31337,-9.7831,-0.0132,-0.2656,-0.1002,-0.0843,-0.0501,20.54
10662387146000,31355,-9.8010,-0.0419,-0.3099,-0.0941,-0.0916,-0.0147,20.58
10662398268800,31367,-9.8022,-0.0455,-0.3314,-0.0525,-0.0953,-0.0293,20.57
10662409450500,31378,-9.8285,-0.0491,-0.3541,-0.0281,-0.1051,-0.0428,20.57
10662421741500,31389,-9.7819,-0.1077,-0.4606,-0.0342,-0.1038,-0.0330,20.59
10662432220100,31401,-9.7843,-0.1424,-0.4403,-0.0147,-0.1051,-0.0342,20.59
10662443152600,31412,-9.7914,-0.1854,-0.4331,-0.0635,-0.1271,-0.0440,20.59
10662454290700,31423,-9.7699,-0.1005,-0.4068,-0.0733,-0.0904,-0.0599,20.57
10662466308700,31435,-9.8201,-0.0455,-0.2931,-0.0550,-0.0941,-0.0513,20.57
10662477015700,31446,-9.7962,-0.0084,-0.2871,-0.0709,-0.1515,-0.0354,20.57
10662488436500,31457,-9.7795,0.0670,-0.3266,-0.0550,-0.0843,-0.0269,20.57
10662500241300,31469,-9.8453,0.0586,-0.3111,-0.0501,-0.0819,-0.0195,20.58
10662510930700,31480,-9.8166,-0.0538,-0.3111,-0.0513,-0.0892,-0.0159,20.58
10662522194200,31492,-9.8034,-0.0167,-0.3565,-0.0476,-0.0770,-0.0269,20.57
10662534162900,31503,-9.8225,-0.1280,-0.3170,-0.0293,-0.0892,-0.0232,20.62
10662545253300,31514,-9.7878,-0.0622,-0.3541,-0.0195,-0.1026,-0.0086,20.62
10662556624700,31525,-9.7759,0.0443,-0.4056,-0.0061,-0.0831,-0.0257,20.55
10662568820600,31537,-9.8022,-0.0359,-0.4235,-0.0232,-0.0648,-0.0305,20.55
10662579077500,31548,-9.8070,-0.0873,-0.3553,-0.0489,-0.0550,-0.0220,20.57
10662589958400,31559,-9.7723,-0.0179,-0.3984,-0.0367,-0.0513,-0.0330,20.57
10662602732400,31571,-9.7902,0.0024,-0.4068,-0.0330,-0.0623,-0.0464,20.55
10662613064400,31582,-9.8058,-0.0203,-0.3290,-0.0452,-0.0745,-0.0318,20.57
10662624223300,31593,-9.8094,-0.0491,-0.3123,-0.0538,-0.0782,-0.0208,20.57
10662636046800,31605,-9.7759,-0.0706,-0.4175,-0.0599,-0.1026,-0.0122,20.60
10662646866700,31616,-9.8010,-0.0718,-0.4834,-0.0049,-0.0709,0.0012,20.60
10662657662200,31627,-9.8309,-0.0706,-0.3912,0.0134,-0.0770,-0.0244,20.56
10662670266600,31639,-9.7735,0.0012,-0.3769,0.0110,-0.0721,-0.0244,20.56
10662681461300,31650,-9.7819,0.0215,-0.3577,-0.0024,-0.0635,-0.0232,20.57
10662692559000,31661,-9.8022,0.0562,-0.1998,-0.0134,-0.0415,-0.0269,20.57
10662704383900,31673,-9.8154,0.0550,-0.2261,-0.0110,-0.0367,-0.0367,20.59
10662715165800,31684,-9.8094,-0.0251,-0.3111,-0.0208,-0.0562,-0.0244,20.59
10662726401300,31695,-9.7831,-0.0407,-0.3541,-0.0281,-0.0476,-0.0134,20.59
10662738294900,31706,-9.7831,0.0048,-0.2955,-0.0574,-0.0794,-0.0379,20.58
10662749336800,31718,-9.8058,0.0072,-0.2895,-0.0464,-0.0513,-0.0367,20.58
10662760377800,31729,-9.8058,-0.0263,-0.3027,-0.0452,-0.0623,-0.0440,20.56
10662771638200,31740,-9.8070,0.0718,-0.2656,-0.0574,-0.0367,-0.0293,20.56
10662782822400,31752,-9.7890,-0.0311,-0.3206,-0.0452,-0.0599,-0.0269,20.60
10662794369700,31763,-9.8034,-0.1005,-0.3888,-0.0354,-0.0562,-0.0171,20.56
10662804907900,31775,-9.7938,-0.1424,-0.3553,-0.0403,-0.0929,-0.0342,20.56
10662817119900,31786,-9.7998,-0.0766,-0.4032,-0.0354,-0.0733,-0.0452,20.56
10662828158700,31797,-9.8106,-0.0742,-0.3805,-0.0293,-0.0574,-0.0257,20.56
10662839269400,31808,-9.7914,-0.0993,-0.3230,-0.0305,-0.0452,-0.0098,20.59
10662851181000,31820,-9.7962,-0.0909,-0.2644,-0.0367,-0.0623,-0.0342,20.59
10662862115100,31831,-9.8154,0.2465,-0.2022,-0.0354,-0.0648,-0.0318,20.56
10662873527600,31842,-9.8058,0.0215,-0.2381,-0.0318,-0.0770,-0.0391,20.55
10662884947600,31854,-9.7902,-0.0873,-0.2560,-0.0501,-0.0977,-0.0501,20.55
10662896363300,31865,-9.8106,-0.0526,-0.2943,-0.0501,-0.0843,-0.0195,20.55
10662907063500,31876,-9.8142,-0.0682,-0.3314,-0.0660,-0.0941,-0.0391,20.55
10662919190500,31888,-9.7831,-0.0909,-0.2967,-0.0721,-0.0831,-0.0342,20.56
10662930388400,31899,-9.7902,-0.0574,-0.2560,-0.0709,-0.0757,-0.0354,20.56
10662940954600,31910,-9.8178,-0.0574,-0.2118,-0.0880,-0.0831,-0.0391,20.55
10662952409300,31922,-9.7986,-0.1352,-0.2477,-0.0843,-0.1051,-0.0452,20.55
10662963517600,31933,-9.8022,-0.1460,-0.2596,-0.0648,-0.1014,-0.0489,20.55
10662974601400,31944,-9.8094,-0.0455,-0.2572,-0.0623,-0.0990,-0.0428,20.56
10662987080100,31956,-9.7831,-0.0287,-0.3063,-0.0415,-0.0623,-0.0049,20.56
10662998197800,31967,-9.7974,-0.0849,-0.2369,-0.0672,-0.0660,0.0024,20.58
10663009525700,31978,-9.8213,-0.0502,-0.1974,-0.1063,-0.0770,-0.0183,20.58
10663021821900,31990,-9.8118,-0.0036,-0.2094,-0.1258,-0.0672,-0.0452,20.58
10663032349400,32001,-9.7914,-0.0108,-0.2046,-0.1234,-0.0476,-0.0550,20.58
10663043585200,32012,-9.8046,-0.1137,-0.2489,-0.0904,-0.0599,-0.0489,20.61
10663055084600,32024,-9.8142,0.0670,-0.2608,-0.0929,-0.0599,-0.0428,20.61
10663066555700,32035,-9.7974,0.0371,-0.2536,-0.0880,-0.0550,-0.0037,20.61
10663077171500,32046,-9.8142,0.0084,-0.2967,-0.1246,-0.0855,-0.0403,20.60
10663088495100,32058,-9.8106,0.0885,-0.2572,-0.1258,-0.0611,-0.0415,20.60
10663100545700,32069,-9.8010,0.0167,-0.2357,-0.1014,-0.0489,0.0024,20.55
10663111350900,32080,-9.7950,-0.0239,-0.3063,-0.0929,-0.0757,-0.0415,20.55
10663122613900,32092,-9.8106,-0.0120,-0.3338,-0.0684,-0.0574,-0.0476,20.56
10663134530600,32103,-9.7639,-0.0945,-0.3661,-0.0501,-0.0525,-0.0525,20.56
10663145936400,32114,-9.7950,-0.1077,-0.4116,-0.0562,-0.0586,-0.0379,20.56
10663156190900,32126,-9.7998,-0.0096,-0.3458,-0.0476,-0.0464,-0.0220,20.55
10663168319400,32137,-9.8022,0.1268,-0.3051,-0.0611,-0.0415,-0.0440,20.55
10663179045700,32148,-9.8429,0.2022,-0.3709,-0.0464,-0.0244,-0.0342,20.59
10663190404800,32160,-9.8130,-0.1041,-0.2740,-0.0391,-0.0354,-0.0354,20.59
10663201767700,32171,-9.7902,-0.1783,-0.4008,-0.0855,-0.0819,-0.0330,20.57
10663212678600,32182,-9.7783,-0.1113,-0.3111,-0.0623,-0.0745,-0.0476,20.59
10663224051400,32193,-9.8058,0.0048,-0.3027,-0.0586,-0.0831,-0.0586,20.59
10663236368700,32205,-9.7998,0.0455,-0.2967,-0.0550,-0.0843,-0.0305,20.58
10663247311200,32216,-9.8046,0.1244,-0.3170,-0.0342,-0.0843,-0.0342,20.58
10663258176000,32227,-9.8393,0.1735,-0.3170,-0.0147,-0.0648,-0.0379,20.55
10663270603300,32239,-9.8046,-0.0024,-0.3649,-0.0073,-0.0684,-0.0220,20.55
10663281594800,32250,-9.7962,-0.0479,-0.3529,-0.0134,-0.0843,-0.0208,20.60
10663292307000,32261,-9.8154,0.0000,-0.2740,0.0195,-0.0586,0.0122,20.56
10663304193400,32273,-9.8046,0.0203,-0.3170,-0.0403,-0.0990,-0.0195,20.56
10663315102400,32284,-9.7783,-0.0538,-0.3099,-0.0098,-0.0819,-0.0110,20.60
10663326643500,32295,-9.7962,-0.1388,-0.3111,-0.0623,-0.1222,-0.0281,20.60
10663338074900,32307,-9.8154,0.0682,-0.3123,-0.0098,-0.1087,-0.0183,20.56
10663349594800,32318,-9.7950,0.0957,-0.2082,-0.0012,-0.0880,-0.0183,20.56
10663360619500,32329,-9.8213,0.1280,-0.2189,-0.0012,-0.1002,-0.0134,20.55
10663371859900,32341,-9.8082,0.0562,-0.2261,0.0122,-0.0904,-0.0122,20.55
10663383323100,32352,-9.8034,0.0455,-0.1831,-0.0232,-0.0843,-0.0257,20.57
10663394638800,32363,-9.8489,0.0766,-0.1926,0.0122,-0.0318,-0.0110,20.54
10663405526200,32374,-9.8309,-0.1184,-0.2680,-0.0464,-0.0599,-0.0599,20.54
10663417001400,32386,-9.7687,-0.2201,-0.2776,-0.0367,-0.0867,-0.0757,20.59
10663428436400,32397,-9.7699,-0.0646,-0.2728,-0.0159,-0.0819,-0.0367,20.59
10663439362000,32409,-9.8285,-0.0132,-0.2489,-0.0024,-0.0709,-0.0244,20.57
10663450734600,32420,-9.8261,-0.0395,-0.2273,-0.0110,-0.0843,-0.0330,20.57
10663462002200,32431,-9.7974,-0.0203,-0.1687,-0.0037,-0.0867,-0.0134,20.57
10663472731100,32442,-9.7926,0.0096,-0.1639,-0.0110,-0.0757,-0.0244,20.59
10663484905400,32454,-9.7938,0.0837,-0.1507,0.0061,-0.0623,-0.0159,20.59
10663495515500,32465,-9.8118,0.1256,-0.1531,0.0000,-0.0440,-0.0257,20.59
10663506601100,32476,-9.8142,-0.0993,-0.2512,-0.0122,-0.0464,-0.0367,20.59
10663519153700,32488,-9.8070,-0.0802,-0.2357,0.0024,-0.0367,-0.0440,20.52
10663529798300,32499,-9.7914,-0.1220,-0.2477,0.0122,-0.0208,-0.0354,20.52
10663540782700,32510,-9.8273,-0.0730,-0.2943,0.0037,-0.0464,-0.0391,20.56
10663552617100,32522,-9.8034,0.0467,-0.2082,0.0244,-0.0428,-0.0257,20.58
10663564335500,32533,-9.8297,0.0622,-0.2249,0.0195,-0.0538,-0.0281,20.58
10663574945500,32544,-9.7771,-0.1496,-0.3147,-0.0024,-0.0770,-0.0183,20.57
10663587802500,32556,-9.7962,0.1244,-0.2692,0.0049,-0.0819,-0.0293,20.57
10663598359200,32567,-9.8082,0.0861,-0.1962,0.0195,-0.0562,-0.0232,20.53
10663609363000,32578,-9.7627,-0.1831,-0.2620,-0.0257,-0.0794,-0.0232,20.53
10663621705100,32590,-9.8393,-0.0562,-0.2465,0.0098,-0.0745,-0.0305,20.56
10663632397100,32601,-9.7843,-0.1376,-0.3206,0.0086,-0.0819,-0.0367,20.56
10663643028400,32612,-9.8178,-0.0287,-0.2405,0.0318,-0.0623,-0.0257,20.56
10663654748200,32624,-9.8130,-0.0072,-0.2213,0.0049,-0.0586,-0.0440,20.56
10663665341300,32635,-9.8058,-0.0144,-0.2166,0.0330,-0.0415,-0.0134,20.56
10663677686000,32646,-9.8106,-0.0036,-0.1866,0.0159,-0.0489,-0.0171,20.55
10663688613700,32657,-9.8178,0.0873,-0.1675,0.0110,-0.0452,-0.0586,20.55
10663699907900,32669,-9.7783,0.0383,-0.1974,-0.0024,-0.0452,-0.0525,20.55
10663710813200,32680,-9.8058,0.0766,-0.2273,0.0305,-0.0525,-0.0110,20.55
10663721851000,32691,-9.8058,-0.0467,-0.2632,0.0049,-0.0867,-0.0428,20.55
10663734366000,32703,-9.8178,0.0742,-0.2309,0.0220,-0.0770,-0.0171,20.54
10663745446500,32714,-9.7926,0.0179,-0.2512,0.0171,-0.0794,-0.0281,20.54
10663756182200,32725,-9.8357,0.0120,-0.2668,0.0159,-0.0794,-0.0501,20.54
10663768138300,32737,-9.8154,0.0897,-0.2237,0.0305,-0.0623,-0.0244,20.54
10663778867800,32748,-9.7878,0.0108,-0.1986,0.0208,-0.0501,-0.0244,20.55
10663790257700,32759,-9.8070,0.0108,-0.1842,0.0110,-0.0574,-0.0367,20.55
10663801771200,32771,-9.7926,0.0036,-0.2441,0.0171,-0.0562,-0.0293,20.59
10663812571300,32782,-9.7783,0.0203,-0.2584,0.0110,-0.0684,-0.0330,20.57
10663823835400,32793,-9.8106,0.0502,-0.2752,0.0195,-0.0757,-0.0354,20.57
10663836306300,32805,-9.8034,0.0012,-0.2249,0.0403,-0.0648,-0.0159,20.59
10663846691500,32816,-9.8130,0.0610,-0.1866,0.0391,-0.0709,-0.0110,20.59
10663857988700,32827,-9.8297,0.2058,-0.1711,0.0330,-0.0770,-0.0171,20.52
10663870567200,32839,-9.8106,0.1005,-0.1759,0.0110,-0.0770,-0.0232,20.52
10663881433100,32850,-9.7699,-0.1268,-0.2955,0.0049,-0.0904,-0.0391,20.58
10663892488100,32861,-9.8178,0.0431,-0.2656,0.0318,-0.0782,-0.0220,20.54
10663903881100,32873,-9.8154,0.0455,-0.2441,0.0403,-0.0709,-0.0281,20.54
10663914821300,32884,-9.8309,-0.0455,-0.2321,0.0501,-0.0476,-0.0244,20.56
10663926105600,32895,-9.7926,-0.2548,-0.2500,0.0379,-0.0489,-0.0415,20.56
10663938914300,32907,-9.7902,-0.1591,-0.2608,0.0428,-0.0562,-0.0403,20.56
10663949431600,32918,-9.7914,0.0395,-0.2106,0.0501,-0.0745,-0.0257,20.56
10663959977400,32929,-9.8261,0.0287,-0.1819,0.0379,-0.0867,-0.0183,20.57
10663971833600,32940,-9.8237,-0.0395,-0.2357,0.0318,-0.0990,-0.0257,20.57
10663983199500,32952,-9.7735,-0.0993,-0.2596,0.0159,-0.0953,-0.0305,20.59
10663993688400,32963,-9.7699,-0.0347,-0.2154,0.0342,-0.0806,-0.0452,20.59
10664005915800,32974,-9.8070,0.0359,-0.1627,0.0452,-0.0648,-0.0550,20.59
10664017590700,32986,-9.8285,0.0156,-0.1603,0.0367,-0.0538,-0.0476,20.56
10664027597800,32997,-9.8333,0.0885,-0.1196,0.0415,-0.0623,-0.0403,20.56
10664040012200,33008,-9.8106,0.0861,-0.1220,0.0586,-0.0599,0.0024,20.59
10664051479000,33020,-9.7890,-0.1519,-0.1962,0.0489,-0.0562,0.0024,20.59
10664062299300,33031,-9.8166,-0.1172,-0.2465,0.0415,-0.0586,-0.0305,20.55
10664073109100,33042,-9.8201,-0.1292,-0.2548,0.0367,-0.0574,-0.0318,20.59
10664085159400,33054,-9.8094,-0.1113,-0.2668,0.0550,-0.0513,-0.0440,20.59
10664096162000,33065,-9.8154,-0.1567,-0.2692,0.0745,-0.0232,-0.0073,20.55
10664106852700,33077,-9.8106,-0.0479,-0.2477,0.0672,-0.0122,-0.0244,20.55
10664118269600,33088,-9.8225,-0.0024,-0.1890,0.0733,-0.0293,-0.0293,20.57
10664130493300,33099,-9.7735,-0.2058,-0.2465,0.0476,-0.0476,-0.0367,20.57
10664141554300,33110,-9.8405,-0.0670,-0.2201,0.0550,-0.0562,-0.0159,20.59
10664154014300,33122,-9.8070,-0.0969,-0.2704,0.0574,-0.0586,0.0024,20.56
10664164253800,33133,-9.7400,-0.0598,-0.2931,0.0904,-0.0538,-0.0110,20.56
10664175060100,33145,-9.7819,-0.0921,-0.2824,0.0819,-0.0586,-0.0318,20.56
10664187086000,33156,-9.8297,0.0060,-0.2357,0.0415,-0.0440,-0.0599,20.56
10664198625700,33167,-9.8381,-0.0251,-0.2142,0.0733,-0.0525,-0.0513,20.55
10664209088600,33179,-9.8608,0.1053,-0.1484,0.0770,-0.0513,-0.0012,20.55
10664221445300,33190,-9.8094,0.3135,-0.0754,0.0684,-0.0635,-0.0037,20.54
10664231632400,33201,-9.7998,0.0586,-0.1723,0.0464,-0.0819,-0.0122,20.57
10664243032500,33212,-9.7998,0.1172,-0.1687,0.0538,-0.0745,-0.0159,20.57
10664254182900,33224,-9.7974,0.1113,-0.1364,0.0513,-0.0733,-0.0379,20.54
10664266838200,33235,-9.7974,0.0814,-0.1149,0.0220,-0.0782,-0.0501,20.54
10664277819500,33246,-9.8082,0.1125,-0.0993,0.0415,-0.0831,-0.0086,20.54
10664289062800,33258,-9.8106,0.1914,-0.0981,0.0318,-0.0977,-0.0147,20.54
10664300588200,33269,-9.8178,0.1603,-0.1400,0.0122,-0.1100,-0.0257,20.56
10664311543200,33280,-9.8058,0.1400,-0.1723,0.0244,-0.1038,-0.0122,20.53
10664322432600,33292,-9.8213,0.0706,-0.1771,0.0318,-0.1002,-0.0195,20.53
10664334594100,33303,-9.7914,-0.0156,-0.2237,0.0428,-0.0916,-0.0171,20.56
10664345498600,33314,-9.7974,0.0335,-0.2142,0.0489,-0.0904,-0.0330,20.56
10664356509300,33326,-9.8297,0.0479,-0.1747,0.0550,-0.0953,-0.0257,20.59
10664368774800,33337,-9.8106,-0.0108,-0.1914,0.0745,-0.1087,0.0049,20.59
10664379613000,33348,-9.8022,0.1364,-0.1388,0.0501,-0.1112,-0.0024,20.54
10664390718500,33360,-9.8142,0.2070,-0.0909,0.0293,-0.1136,-0.0220,20.54
10664402396100,33371,-9.7998,0.0694,-0.1531,0.0269,-0.1258,-0.0318,20.51
10664413340000,33382,-9.8225,0.1759,-0.1280,0.0342,-0.1332,-0.0134,20.57
10664424311100,33394,-9.8154,0.0144,-0.1579,0.0232,-0.1381,-0.0110,20.57
10664436429300,33405,-9.8309,-0.0646,-0.1603,0.0134,-0.1332,-0.0171,20.62
10664446805800,33416,-9.8094,-0.1376,-0.1543,0.0220,-0.1307,-0.0220,20.62
10664457933500,33427,-9.7783,-0.3410,-0.2142,0.0281,-0.1087,-0.0501,20.56
10664470483000,33439,-9.7998,-0.0407,-0.1567,0.0562,-0.1002,-0.0403,20.56
10664481676900,33450,-9.8333,0.1639,-0.0120,0.0562,-0.0965,-0.0379,20.54
10664492086100,33461,-9.8142,-0.1137,-0.1340,0.0550,-0.0819,-0.0147,20.55
10664504783400,33473,-9.7974,-0.1364,-0.1819,0.0782,-0.0733,-0.0195,20.55
10664514884100,33484,-9.8046,0.0227,-0.1448,0.0745,-0.0757,-0.0281,20.51
10664526086300,33495,-9.7962,-0.1053,-0.2142,0.0648,-0.0819,-0.0391,20.51
10664538036900,33507,-9.8106,-0.1986,-0.2704,0.0623,-0.0794,-0.0244,20.57
10664549596500,33518,-9.8130,-0.1388,-0.2249,0.0745,-0.0745,-0.0208,20.57
10664559835900,33529,-9.8034,-0.1986,-0.2345,0.0696,-0.0696,-0.0330,20.57
10664572024600,33541,-9.8273,-0.0586,-0.1519,0.1063,-0.0513,-0.0367,20.55
10664583457500,33552,-9.8154,-0.1388,-0.1460,0.1014,-0.0660,-0.0281,20.55
10664594518200,33563,-9.8070,-0.1926,-0.2034,0.0831,-0.0452,-0.0623,20.57
10664605925100,33575,-9.7843,-0.2046,-0.2357,0.1002,-0.0403,-0.0623,20.57
10664617275400,33586,-9.7914,-0.0574,-0.1759,0.1381,-0.0415,-0.0134,20.57
10664628382600,33597,-9.7926,0.0084,-0.1268,0.1246,-0.0562,-0.0086,20.57
10664639588300,33609,-9.8201,-0.0514,-0.1292,0.0586,-0.0574,-0.0648,20.52
10664650884400,33620,-9.8524,0.0622,-0.0658,0.1112,-0.0672,-0.0342,20.52
10664662230500,33631,-9.8309,0.1938,0.0084,0.1161,-0.0721,-0.0110,20.56
10664673059600,33643,-9.7938,0.0826,0.0156,0.0965,-0.0623,-0.0195,20.54
10664685326200,33654,-9.8118,0.0933,0.0443,0.0538,-0.0623,-0.0757,20.54
10664696041800,33665,-9.8154,0.0239,-0.0120,0.0819,-0.0635,-0.0476,20.57
10664708217500,33677,-9.8010,-0.0251,-0.0861,0.0831,-0.0525,-0.0452,20.57
10664718968200,33688,-9.8656,0.1950,0.0072,0.1087,-0.0672,-0.0073,20.54
10664730341400,33699,-9.7914,0.0873,-0.0239,0.0794,-0.0782,0.0061,20.54
10664741015900,33710,-9.8393,0.1292,-0.0323,0.0611,-0.1124,-0.0183,20.54
10664752821800,33722,-9.8142,0.0395,-0.0610,0.0623,-0.1210,-0.0110,20.59
10664764292800,33733,-9.8154,0.0048,-0.0730,0.0782,-0.1051,-0.0049,20.59
10664774868100,33744,-9.8357,0.2094,0.0419,0.0525,-0.1136,-0.0086,20.52
10664787343000,33756,-9.8297,0.1460,0.0203,0.0293,-0.1283,-0.0122,20.52
10664798270300,33767,-9.7938,-0.1125,-0.0969,0.0305,-0.1051,-0.0281,20.52
10664809312700,33778,-9.7962,-0.0766,-0.0885,0.0440,-0.0916,-0.0391,20.52
10664821514900,33790,-9.8022,0.0191,-0.0550,0.0782,-0.0953,-0.0342,20.54
10664832139900,33801,-9.8130,0.1137,-0.0311,0.0648,-0.0819,-0.0293,20.57
10664842599800,33812,-9.7998,0.2130,0.0000,0.0525,-0.1075,-0.0281,20.57
10664854910900,33823,-9.8213,0.1184,-0.0299,0.0367,-0.1124,-0.0367,20.59
10664865470700,33835,-9.8070,0.0287,-0.0502,0.0513,-0.0904,-0.0379,20.59
10664877061400,33846,-9.8010,-0.0156,-0.0610,0.0806,-0.0843,-0.0257,20.53
10664889477500,33857,-9.8082,-0.0538,-0.1196,0.0831,-0.0672,-0.0171,20.53
10664900170100,33869,-9.8237,-0.0120,-0.0718,0.0843,-0.0721,-0.0330,20.52
10664911133400,33880,-9.8178,-0.0778,-0.1053,0.0855,-0.0806,-0.0305,20.52
10664922920500,33891,-9.8034,-0.0574,-0.1065,0.1014,-0.0684,-0.0122,20.56
10664932981700,33903,-9.7938,0.0359,-0.0491,0.0867,-0.0672,-0.0232,20.56
10664944068600,33914,-9.8273,0.1735,0.0323,0.0574,-0.0782,-0.0354,20.56
10664955559100,33925,-9.8297,0.1496,0.0179,0.0428,-0.0831,-0.0452,20.52
10664967657200,33937,-9.8070,-0.0275,-0.0742,0.0574,-0.0623,-0.0476,20.52
10664978833500,33948,-9.8130,-0.0574,-0.0897,0.0843,-0.0452,-0.0354,20.56
10664990251700,33959,-9.8130,-0.0084,-0.0634,0.0867,-0.0428,-0.0269,20.56
10665001990000,33970,-9.8154,-0.0084,-0.0802,0.1063,-0.0599,-0.0134,20.55
10665012715900,33982,-9.8189,0.0646,-0.0287,0.0916,-0.0648,-0.0171,20.55
10665023606200,33993,-9.8106,0.0048,-0.0718,0.0855,-0.0806,-0.0220,20.55
10665036608300,34004,-9.8106,-0.0670,-0.1280,0.0965,-0.0672,-0.0220,20.55
10665046730400,34016,-9.7998,-0.0802,-0.1113,0.1222,-0.0611,-0.0147,20.55
10665057642800,34027,-9.8094,-0.0694,-0.0921,0.1197,-0.0574,-0.0244,20.54
10665069506100,34039,-9.8249,0.0132,-0.0144,0.1014,-0.0562,-0.0305,20.54
10665080999500,34050,-9.8321,0.1771,0.1184,0.0635,-0.0733,-0.0611,20.55
10665091858200,34061,-9.8189,0.0790,0.0084,0.0513,-0.1002,-0.0183,20.55
10665104282900,34072,-9.7914,-0.1208,-0.1436,0.0660,-0.0513,-0.0220,20.55
10665114948800,34084,-9.8022,-0.2166,-0.1376,0.0880,-0.0269,-0.0305,20.56
10665126257900,34095,-9.8070,-0.1639,-0.0598,0.1087,-0.0183,-0.0415,20.56
10665138318000,34106,-9.8333,-0.0120,0.0802,0.1124,-0.0232,-0.0281,20.56
10665148430700,34118,-9.8225,0.0467,0.1316,0.1136,-0.0538,-0.0293,20.56
10665159358600,34129,-9.7890,0.0263,0.0909,0.0831,-0.0550,-0.0367,20.55
10665172074900,34140,-9.8321,0.0981,0.0909,0.0696,-0.0696,-0.0257,20.54
10665183115100,34152,-9.8381,0.1041,0.0550,0.0513,-0.0819,-0.0367,20.54
10665193531600,34163,-9.8309,0.1196,0.0730,0.0660,-0.0819,-0.0244,20.57
10665206150100,34174,-9.8034,0.0024,0.0670,0.0867,-0.0733,-0.0037,20.57
10665217043900,34186,-9.7974,-0.0598,0.0156,0.0904,-0.0550,-0.0171,20.57
10665227419200,34197,-9.7974,-0.0467,0.0634,0.0929,-0.0379,-0.0134,20.57
10665239880700,34208,-9.8094,-0.0802,0.0084,0.0904,-0.0550,-0.0281,20.58
10665250125000,34220,-9.8249,-0.0622,-0.0443,0.0794,-0.0293,-0.0342,20.58
10665261956800,34231,-9.8189,0.0000,-0.0048,0.0953,-0.0415,-0.0232,20.60
10665273283800,34242,-9.8154,0.0395,0.0000,0.0941,-0.0721,-0.0281,20.54
10665285134900,34254,-9.8082,0.0957,0.0012,0.0757,-0.0855,-0.0391,20.54
10665296102500,34265,-9.8094,0.1053,0.0120,0.0721,-0.0941,-0.0415,20.57
10665308007800,34276,-9.8201,0.0335,-0.0096,0.0757,-0.0672,-0.0232,20.57
10665318987600,34288,-9.8309,0.0395,0.0120,0.1124,-0.0696,-0.0098,20.55
10665330467700,34299,-9.8249,-0.0191,0.0048,0.1148,-0.0892,-0.0086,20.55
10665341425300,34310,-9.8094,-0.0251,0.0287,0.0892,-0.0965,-0.0281,20.57
10665353355300,34321,-9.8106,0.0766,0.0790,0.0684,-0.1075,-0.0464,20.55
10665363569000,34333,-9.8213,0.1029,0.0802,0.0489,-0.1112,-0.0538,20.55
10665374770300,34344,-9.8369,0.1507,0.1053,0.0562,-0.1124,-0.0428,20.57
10665386582700,34355,-9.8249,0.1137,0.1113,0.0672,-0.1148,-0.0293,20.57
10665397882200,34367,-9.7962,-0.0467,0.0203,0.0855,-0.0916,-0.0281,20.55
10665408374600,34378,-9.8178,-0.0802,-0.0024,0.0892,-0.0684,-0.0171,20.55
10665421082000,34389,-9.8297,-0.0526,0.0239,0.0855,-0.0574,-0.0134,20.57
10665432067900,34401,-9.8058,-0.0395,-0.0491,0.0684,-0.0648,-0.0269,20.58
10665443076500,34412,-9.8142,-0.0383,-0.0538,0.0745,-0.0855,-0.0244,20.58
10665455860300,34423,-9.8189,-0.0766,-0.0706,0.0916,-0.0819,-0.0220,20.54
10665466317400,34435,-9.8094,-0.0778,-0.0419,0.1026,-0.0696,-0.0134,20.54
10665476926400,34446,-9.7914,-0.0837,-0.0311,0.0977,-0.0635,-0.0318,20.57
10665489673000,34457,-9.8022,-0.0467,-0.0167,0.0965,-0.0648,-0.0428,20.57
10665500242500,34469,-9.8357,-0.0251,-0.0167,0.0880,-0.0623,-0.0428,20.56
10665510969100,34480,-9.8010,0.0407,0.0371,0.0990,-0.0929,-0.0208,20.56
10665523232600,34491,-9.8237,0.0802,0.0347,0.0660,-0.0990,-0.0342,20.56
10665534247700,34503,-9.8022,0.0275,-0.0191,0.0562,-0.0953,-0.0318,20.55
10665544866900,34514,-9.8022,-0.0108,-0.0455,0.0709,-0.0794,-0.0281,20.55
10665556371300,34525,-9.8094,-0.0730,-0.0347,0.0892,-0.0550,-0.0342,20.55
10665568055700,34537,-9.8154,-0.0646,0.0502,0.0965,-0.0367,-0.0391,20.55
10665578569600,34548,-9.8357,0.0108,0.0742,0.1051,-0.0562,-0.0183,20.55
10665590134100,34559,-9.8321,0.0179,0.0730,0.0855,-0.0660,-0.0208,20.55
10665602002600,34571,-9.7938,0.0311,0.1161,0.0831,-0.0941,-0.0318,20.55
10665612752900,34582,-9.8010,0.0837,0.1184,0.0904,-0.0880,-0.0257,20.59
10665624163300,34593,-9.8058,0.0514,0.0933,0.0941,-0.0855,-0.0183,20.59
10665636196300,34605,-9.8178,-0.0012,0.0323,0.1075,-0.0648,-0.0134,20.57
10665646789200,34616,-9.8166,-0.0299,0.0156,0.1271,-0.0525,-0.0086,20.57
10665657908400,34627,-9.8118,-0.0431,0.0191,0.1319,-0.0379,-0.0134,20.59
10665670143500,34639,-9.8321,-0.0658,-0.0024,0.1258,-0.0244,-0.0244,20.59
10665681222500,34650,-9.8070,-0.0969,0.0311,0.1442,-0.0428,-0.0183,20.57
10665691947100,34661,-9.8130,0.0323,0.0455,0.1454,-0.0611,-0.0122,20.58
10665703424800,34672,-9.8058,0.1041,0.0622,0.1087,-0.0745,-0.0171,20.58
10665714789300,34684,-9.8034,0.0814,0.0610,0.0916,-0.0880,-0.0305,20.54
10665725718500,34695,-9.8189,0.0132,-0.0371,0.0806,-0.0794,-0.0318,20.54
10665738060100,34706,-9.8130,-0.1304,-0.0837,0.0904,-0.0440,-0.0220,20.57
10665748586000,34718,-9.8130,-0.1113,-0.0407,0.1026,-0.0281,-0.0354,20.57
10665759858000,34729,-9.8201,-0.0323,-0.0359,0.0953,-0.0281,-0.0489,20.57
10665771378400,34740,-9.7998,-0.0072,0.0108,0.1075,-0.0452,-0.0195,20.57
10665782942300,34752,-9.8094,-0.0024,0.0239,0.1124,-0.0452,-0.0159,20.57
10665793555700,34763,-9.8249,0.0108,-0.0120,0.1173,-0.0635,-0.0195,20.58
10665805225000,34774,-9.8369,-0.0395,-0.0203,0.0990,-0.0452,-0.0342,20.58
10665816911100,34786,-9.8261,-0.0431,-0.0479,0.1295,-0.0684,-0.0269,20.57
10665827797200,34797,-9.7902,-0.0826,-0.1400,0.1307,-0.0464,-0.0110,20.57
10665839733800,34808,-9.7986,-0.0359,-0.0897,0.1258,-0.0415,-0.0293,20.56
10665850752500,34820,-9.8118,0.1089,0.0586,0.1271,-0.0525,-0.0440,20.56
10665861520800,34831,-9.8178,0.0419,0.0407,0.0684,-0.0648,-0.0513,20.56
10665874097300,34842,-9.8369,-0.0108,0.0455,0.1002,-0.0660,-0.0318,20.55
10665884079700,34853,-9.8213,0.0072,0.0407,0.1197,-0.0770,-0.0281,20.55
10665895390700,34865,-9.7926,-0.0299,0.0431,0.1283,-0.0476,-0.0171,20.57
10665906847500,34876,-9.8010,0.0502,0.0706,0.1417,-0.0550,-0.0073,20.57
10665919029000,34887,-9.8130,0.1208,0.0730,0.1173,-0.0440,-0.0134,20.58
10665929332600,34899,-9.8273,0.0335,0.0790,0.1075,-0.0403,-0.0257,20.58
10665940597200,34910,-9.8154,0.0084,0.0467,0.1124,-0.0452,-0.0452,20.59
10665953269400,34921,-9.8130,0.0562,0.0861,0.1002,-0.0440,-0.0379,20.58
10665964177500,34933,-9.8178,0.0670,0.1172,0.0904,-0.0696,-0.0330,20.58
10665974886800,34944,-9.8201,0.0431,0.0849,0.0770,-0.0672,-0.0220,20.56
10665986672200,34955,-9.8010,-0.0371,0.0311,0.0794,-0.0611,-0.0232,20.56
10665997828100,34967,-9.8022,-0.0826,0.0132,0.0782,-0.0574,-0.0354,20.59
10666008821500,34978,-9.8154,-0.0443,0.0598,0.0904,-0.0501,-0.0318,20.59
10666021112500,34989,-9.8345,0.0766,0.1747,0.1136,-0.0574,-0.0281,20.55
10666031874200,35001,-9.7962,0.0694,0.1376,0.0806,-0.0599,-0.0403,20.59
10666042580400,35012,-9.8118,0.0682,0.1196,0.0648,-0.0611,-0.0428,20.59
10666053978800,35023,-9.8333,0.0311,0.1017,0.0538,-0.0574,-0.0440,20.59
10666066011700,35035,-9.8070,-0.0502,0.0538,0.0550,-0.0611,-0.0415,20.59
10666076978800,35046,-9.8046,-0.0909,0.0359,0.0684,-0.0611,-0.0403,20.58
10666089417900,35057,-9.8273,-0.0766,0.0670,0.0916,-0.0586,-0.0305,20.58
10666100323500,35069,-9.8273,-0.0084,0.0873,0.1087,-0.0611,-0.0147,20.58
10666110783100,35080,-9.7974,0.0167,0.1005,0.1014,-0.0721,-0.0110,20.54
10666123384600,35091,-9.8106,0.0167,0.0562,0.0819,-0.0611,-0.0147,20.54
10666134233600,35103,-9.8118,0.0191,0.0227,0.0782,-0.0648,-0.0220,20.57
10666144794300,35114,-9.8118,-0.0179,-0.0431,0.0757,-0.0538,-0.0293,20.57
10666157289000,35125,-9.8249,-0.1065,-0.0837,0.0782,-0.0464,-0.0379,20.55
10666168299600,35137,-9.8034,-0.1484,-0.0885,0.0855,-0.0318,-0.0415,20.55
10666178875500,35148,-9.7890,-0.0754,-0.0215,0.0953,-0.0367,-0.0391,20.57
10666190891000,35159,-9.8213,0.0610,0.1029,0.0562,-0.0611,-0.0391,20.56
10666202837600,35171,-9.7950,0.0491,0.0407,0.0550,-0.0660,-0.0367,20.56
10666212871600,35182,-9.8285,0.0144,-0.0191,0.0782,-0.0525,-0.0220,20.58
10666224210300,35193,-9.8309,-0.0263,-0.0646,0.1002,-0.0428,-0.0134,20.58
10666236177100,35205,-9.7986,-0.0682,-0.1137,0.1173,-0.0342,-0.0110,20.55
10666247103800,35216,-9.8058,-0.0718,-0.0909,0.1246,-0.0269,-0.0159,20.55
10666258065100,35227,-9.8166,-0.0407,-0.0598,0.1161,-0.0367,-0.0232,20.56
10666269052000,35239,-9.8082,0.0347,-0.0347,0.0892,-0.0403,-0.0305,20.56
10666280545100,35250,-9.8309,0.0371,-0.0227,0.0721,-0.0745,-0.0342,20.56
10666291669500,35261,-9.8094,-0.0167,-0.0933,0.0721,-0.0733,-0.0415,20.56
10666303276900,35273,-9.8094,-0.0778,-0.0969,0.0819,-0.0562,-0.0367,20.56
10666315295300,35284,-9.8178,-0.1113,-0.0849,0.0965,-0.0586,-0.0342,20.55
10666325885400,35295,-9.8058,-0.0646,-0.0670,0.1161,-0.0501,-0.0195,20.55
10666337544000,35307,-9.7986,0.0395,-0.0419,0.1283,-0.0452,-0.0061,20.55
10666348989500,35318,-9.8094,0.0550,-0.0455,0.1136,-0.0464,-0.0086,20.55
10666360075900,35329,-9.8058,0.0479,-0.0239,0.0880,-0.0599,-0.0452,20.54
10666371944100,35341,-9.8070,0.0132,-0.0502,0.0916,-0.0538,-0.0342,20.59
10666382925800,35352,-9.8189,-0.0526,-0.0455,0.0965,-0.0660,-0.0220,20.59
10666393627600,35363,-9.8154,-0.0778,-0.0826,0.1051,-0.0660,-0.0073,20.55
10666405932500,35375,-9.8034,-0.1005,-0.0814,0.1087,-0.0672,-0.0024,20.55
10666417065400,35386,-9.8046,-0.0933,-0.0431,0.1026,-0.0709,-0.0244,20.55
10666428123800,35397,-9.8225,0.0048,0.0538,0.0880,-0.0599,-0.0391,20.55
10666440377600,35409,-9.8225,0.0897,0.1268,0.0892,-0.0819,-0.0415,20.54
10666451022500,35420,-9.8189,0.0586,0.0610,0.0880,-0.0745,-0.0220,20.56
10666461738200,35431,-9.8178,0.0287,0.0586,0.0831,-0.0623,-0.0318,20.56
10666473521800,35443,-9.8166,0.0096,0.0239,0.0929,-0.0586,-0.0391,20.54
10666484932100,35454,-9.8201,-0.0239,-0.0179,0.0941,-0.0440,-0.0367,20.54
10666495993000,35465,-9.8118,-0.0323,0.0072,0.0929,-0.0367,-0.0391,20.60
10666507270500,35477,-9.8058,-0.0072,0.0203,0.0953,-0.0354,-0.0293,20.60
10666518997700,35488,-9.8189,-0.0167,0.0502,0.0806,-0.0476,-0.0269,20.59
10666530543400,35499,-9.8178,0.0622,0.0909,0.0733,-0.0611,-0.0367,20.57
10666541235400,35511,-9.8213,0.0885,0.0778,0.0794,-0.0635,-0.0281,20.57
10666553024400,35522,-9.8166,0.0837,0.0239,0.0855,-0.0599,-0.0208,20.54
10666564335800,35533,-9.8225,0.0610,-0.0120,0.0770,-0.0476,-0.0269,20.54
10666575145200,35545,-9.8249,-0.0251,-0.0335,0.0672,-0.0354,-0.0379,20.58
10666587205000,35556,-9.7998,-0.0383,-0.0275,0.0672,-0.0269,-0.0330,20.58
10666598587500,35567,-9.8094,0.0227,0.0335,0.0599,-0.0305,-0.0305,20.56
10666609024300,35579,-9.8154,-0.0634,0.0179,0.0464,-0.0501,-0.0428,20.56
10666621702500,35590,-9.8189,-0.0885,-0.0179,0.0733,-0.0403,-0.0183,20.57
10666631895700,35601,-9.8189,-0.0694,0.0167,0.0770,-0.0428,-0.0257,20.55
10666643285000,35613,-9.8285,-0.0969,0.0096,0.0843,-0.0330,-0.0269,20.55
10666656088600,35624,-9.8189,-0.0586,-0.0132,0.0953,-0.0293,-0.0354,20.57
10666666015700,35635,-9.8166,0.0443,0.0239,0.1038,-0.0159,-0.0257,20.57
10666677237600,35647,-9.8178,0.0790,0.0574,0.0635,-0.0037,-0.0415,20.55
10666689947000,35658,-9.8094,0.0227,0.0407,0.0574,-0.0244,-0.0525,20.55
10666700681300,35669,-9.8321,-0.0526,0.0191,0.0733,-0.0391,-0.0476,20.54
10666711741000,35681,-9.8201,0.0586,0.0203,0.0806,-0.0538,-0.0342,20.57
10666722864500,35692,-9.8010,0.0060,-0.0239,0.0721,-0.0574,-0.0293,20.57
10666734544800,35703,-9.7950,-0.0215,-0.1113,0.0721,-0.0476,-0.0269,20.55
10666745103700,35715,-9.8010,0.0419,-0.0885,0.0733,-0.0513,-0.0232,20.55
10666757651800,35726,-9.8118,0.0395,-0.0682,0.0721,-0.0733,-0.0318,20.53
10666768444500,35737,-9.8010,0.0598,-0.0730,0.0623,-0.0489,-0.0281,20.53
10666779020000,35748,-9.8106,0.0562,-0.0395,0.0623,-0.0684,-0.0415,20.55
10666790715000,35760,-9.8010,0.0084,-0.0993,0.0562,-0.0525,-0.0403,20.56
10666802590500,35771,-9.8393,-0.0215,-0.0742,0.0648,-0.0501,-0.0379,20.56
10666813255800,35782,-9.8034,-0.0622,-0.1531,0.0757,-0.0574,-0.0367,20.54
10666824237800,35794,-9.7759,-0.0706,-0.2058,0.0892,-0.0244,-0.0110,20.54
10666835798300,35805,-9.8034,-0.1029,-0.1436,0.0892,-0.0318,-0.0098,20.59
10666847154900,35816,-9.8130,-0.1603,-0.1950,0.0819,-0.0464,-0.0171,20.59
10666858511000,35828,-9.8321,-0.1507,-0.1615,0.0953,-0.0367,0.0000,20.54
10666870232300,35839,-9.8046,-0.0335,-0.1376,0.1051,-0.0733,-0.0110,20.52
10666881595800,35850,-9.8189,0.0455,-0.0646,0.1014,-0.0574,-0.0037,20.52
10666892278900,35862,-9.8249,0.0072,-0.0311,0.1026,-0.0733,-0.0183,20.56
10666904036200,35873,-9.8046,-0.0622,-0.0778,0.1075,-0.0770,-0.0269,20.56
10666915011100,35884,-9.7974,-0.0419,-0.0778,0.1283,-0.0489,-0.0024,20.57
10666926745500,35896,-9.8381,-0.0885,-0.0012,0.1148,-0.0696,-0.0159,20.57
10666937910800,35907,-9.8094,-0.0814,-0.0072,0.1173,-0.0709,-0.0134,20.56
10666948865700,35918,-9.7974,-0.0502,-0.0179,0.1283,-0.0672,-0.0086,20.56
10666960181600,35930,-9.8082,-0.0239,0.0742,0.1173,-0.0599,-0.0134,20.57
10666971628500,35941,-9.8130,-0.0526,0.0335,0.0929,-0.0525,-0.0281,20.55
10666982985600,35952,-9.8058,-0.0407,0.0179,0.0904,-0.0476,-0.0342,20.55
10666994474300,35964,-9.8261,-0.0060,0.0227,0.0892,-0.0550,-0.0367,20.54
10667005409500,35975,-9.8189,0.0191,0.0120,0.0892,-0.0599,-0.0330,20.54
10667017398200,35986,-9.8130,0.0395,0.0347,0.0770,-0.0452,-0.0367,20.58
10667028476000,35998,-9.8345,-0.0072,0.0514,0.0599,-0.0318,-0.0379,20.58
10667040312300,36009,-9.8189,-0.0467,-0.0167,0.0684,-0.0586,-0.0330,20.54
10667050582500,36020,-9.8142,-0.0144,0.0167,0.0550,-0.0599,-0.0318,20.57
10667061973900,36032,-9.7819,0.0359,-0.0203,0.0428,-0.0403,-0.0257,20.57
10667072564100,36043,-9.7938,0.0108,-0.0873,0.0354,-0.0232,-0.0110,20.59
10667083303700,36054,-9.8357,-0.0682,-0.0849,0.0403,-0.0415,-0.0293,20.59
10667094585000,36066,-9.8118,-0.0766,-0.1172,0.0538,-0.0538,-0.0354,20.59
10667106021800,36077,-9.8166,-0.0359,-0.0514,0.0733,-0.0452,-0.0208,20.59
10667117237300,36088,-9.8357,-0.0443,-0.0239,0.0599,-0.0562,-0.0354,20.54
10667128591300,36100,-9.8022,0.0156,-0.0550,0.0770,-0.0611,-0.0098,20.59
10667140004200,36111,-9.8094,-0.0060,-0.0323,0.0733,-0.0757,-0.0061,20.59
10667151257800,36122,-9.7974,-0.0514,-0.0383,0.0440,-0.0770,-0.0281,20.56
10667162581000,36134,-9.8106,0.0036,-0.0335,0.0452,-0.0672,-0.0342,20.56
10667173945300,36145,-9.8225,0.0012,0.0096,0.0550,-0.0623,-0.0281,20.56
10667185239700,36156,-9.8022,-0.0191,-0.0323,0.0550,-0.0672,-0.0342,20.56
10667196558000,36168,-9.8130,0.0012,-0.0802,0.0538,-0.0574,-0.0354,20.57
10667207906500,36179,-9.7974,-0.0299,-0.0897,0.0513,-0.0415,-0.0232,20.54
10667219325100,36190,-9.8130,-0.0215,-0.0957,0.0525,-0.0403,-0.0257,20.54
10667230510700,36201,-9.8237,-0.0479,-0.0814,0.0550,-0.0623,-0.0293,20.56
10667241937600,36213,-9.8166,-0.0514,-0.0694,0.0611,-0.0513,-0.0147,20.56
10667254700200,36224,-9.8010,-0.0191,-0.0658,0.0538,-0.0538,-0.0244,20.51
10667266035700,36235,-9.8178,0.0167,-0.0311,0.0525,-0.0611,-0.0354,20.51
10667275872000,36247,-9.8417,0.0227,-0.0550,0.0538,-0.0782,-0.0342,20.57
10667287244200,36258,-9.8178,0.0048,-0.1149,0.0562,-0.0599,-0.0147,20.57
10667299087300,36269,-9.7914,0.0742,-0.1077,0.0757,-0.0599,-0.0134,20.58
10667311738200,36281,-9.8154,-0.0335,-0.1208,0.0648,-0.0599,-0.0269,20.57
10667322901200,36292,-9.8178,-0.0586,-0.1507,0.0733,-0.0464,-0.0220,20.57
10667334981700,36303,-9.8022,-0.0060,-0.1149,0.0696,-0.0440,-0.0171,20.60
10667345690200,36315,-9.7890,0.0084,-0.0790,0.0733,-0.0440,-0.0110,20.60
10667357025300,36326,-9.8106,-0.0227,-0.0598,0.0648,-0.0611,-0.0232,20.54
10667369092700,36337,-9.8237,-0.0120,-0.0407,0.0464,-0.0672,-0.0305,20.54
10667379774500,36349,-9.8166,-0.0144,-0.0359,0.0098,-0.0574,-0.0367,20.59
10667390980600,36360,-9.8273,-0.0754,-0.0670,0.0318,-0.0904,-0.0379,20.56
10667402543100,36371,-9.8237,-0.0395,-0.0837,0.0648,-0.0941,-0.0159,20.56
10667413979000,36383,-9.7974,-0.0048,-0.0634,0.0525,-0.0696,-0.0232,20.55
10667424918400,36394,-9.8094,-0.0455,-0.0706,0.0489,-0.0611,-0.0318,20.55
10667437128000,36405,-9.8166,-0.0538,-0.0179,0.0513,-0.0635,-0.0391,20.59
10667447608000,36417,-9.8237,-0.0610,0.0263,0.0513,-0.0574,-0.0501,20.59
10667458604600,36428,-9.8142,-0.0263,0.0323,0.0599,-0.0391,-0.0257,20.56
10667471055700,36439,-9.8189,-0.0096,0.0215,0.0452,-0.0501,-0.0232,20.59
10667482142500,36451,-9.8142,-0.0060,0.0012,0.0538,-0.0367,-0.0110,20.59
10667492928000,36462,-9.8070,-0.0371,-0.0311,0.0550,-0.0550,-0.0195,20.58
10667504961800,36473,-9.8201,-0.0933,-0.0634,0.0415,-0.0391,-0.0244,20.58
10667515906900,36485,-9.8082,-0.0945,-0.0084,0.0489,-0.0379,-0.0232,20.54
10667526626000,36496,-9.8178,-0.0359,0.0191,0.0562,-0.0538,-0.0208,20.54
10667538348700,36507,-9.8189,-0.0239,-0.0120,0.0489,-0.0440,-0.0122,20.58
10667550315700,36519,-9.8237,-0.0395,0.0646,0.0330,-0.0721,-0.0391,20.58
10667560775900,36530,-9.8034,0.0000,-0.0060,0.0269,-0.0599,-0.0464,20.58
10667573891100,36541,-9.8010,0.0060,-0.0742,0.0293,-0.0428,-0.0367,20.58
10667583811600,36553,-9.8130,-0.0084,-0.1161,0.0452,-0.0318,-0.0208,20.58
10667594750600,36564,-9.8022,-0.0431,-0.1484,0.0562,-0.0195,-0.0110,20.58
10667607163100,36575,-9.8010,-0.0538,-0.0897,0.0623,-0.0342,-0.0171,20.58
10667618239600,36587,-9.8058,-0.0287,-0.0586,0.0599,-0.0648,-0.0330,20.57
10667629516800,36598,-9.8225,-0.0239,-0.0359,0.0428,-0.0696,-0.0415,20.57
10667641168500,36609,-9.7962,0.0814,-0.1041,0.0305,-0.0635,-0.0318,20.57
10667652462300,36621,-9.8213,-0.0287,-0.0957,0.0354,-0.0611,-0.0183,20.57
10667670382400,36632,-9.8225,-0.0538,-0.0873,0.0599,-0.0721,-0.0073,20.57
10667681040200,36650,-9.8046,-0.0012,-0.0957,0.0599,-0.0574,-0.0220,20.55
10667692084200,36661,-9.8022,0.0239,-0.1507,0.0648,-0.0415,-0.0195,20.54
10667704227100,36673,-9.8034,0.0167,-0.1400,0.0635,-0.0513,-0.0293,20.54
10667715021200,36684,-9.8201,0.0144,-0.0861,0.0464,-0.0513,-0.0428,20.59
10667726239700,36695,-9.8189,0.0227,-0.0837,0.0476,-0.0538,-0.0428,20.59
10667738128100,36707,-9.8142,0.0335,-0.0634,0.0574,-0.0354,-0.0147,20.61
10667749223100,36718,-9.8070,0.0120,-0.0108,0.0476,-0.0428,-0.0134,20.61
10667759879800,36729,-9.8154,-0.0239,-0.0526,0.0208,-0.0599,-0.0415,20.55
10667771190600,36741,-9.8142,-0.0526,-0.1125,0.0354,-0.0672,-0.0354,20.59
10667782674800,36752,-9.8082,-0.0335,-0.1172,0.0464,-0.0501,-0.0232,20.59
10667793702500,36763,-9.7974,0.0084,-0.1328,0.0672,-0.0293,-0.0183,20.56
10667805935700,36775,-9.7974,-0.0072,-0.1196,0.0476,-0.0012,-0.0232,20.56
10667816963100,36786,-9.8213,-0.0514,0.0000,0.0452,-0.0049,-0.0391,20.58
10667827757900,36797,-9.8154,-0.0179,-0.0359,0.0476,-0.0257,-0.0403,20.58
10667839634900,36809,-9.8094,-0.0335,-0.0502,0.0501,-0.0538,-0.0269,20.57
10667850727300,36820,-9.8166,-0.0239,-0.1053,0.0635,-0.0709,-0.0195,20.54
10667861275600,36831,-9.8130,-0.0239,-0.1747,0.0452,-0.0635,-0.0367,20.54
10667874561900,36843,-9.7866,-0.0754,-0.1866,0.0440,-0.0452,-0.0269,20.57
10667885366100,36854,-9.8225,-0.0969,-0.1065,0.0452,-0.0428,-0.0342,20.57
10667895928700,36865,-9.8333,-0.0646,-0.0694,0.0440,-0.0403,-0.0318,20.59
10667908459200,36877,-9.7974,-0.0431,-0.0921,0.0525,-0.0623,-0.0305,20.59
10667919487200,36888,-9.7783,-0.0251,-0.0873,0.0367,-0.0415,-0.0195,20.54
10667929804300,36899,-9.8321,-0.0431,-0.0897,0.0379,-0.0501,-0.0147,20.61
10667941794300,36910,-9.7902,-0.0299,-0.0419,0.0574,-0.0574,-0.0171,20.61
10667953180400,36922,-9.8261,-0.0203,-0.0802,0.0501,-0.0586,-0.0134,20.55
10667963459000,36933,-9.8010,-0.0215,-0.0933,0.0403,-0.0464,-0.0147,20.55
10667974783200,36944,-9.7843,-0.0323,-0.0514,0.0342,-0.0562,-0.0281,20.56
10667986590000,36956,-9.7938,-0.0287,-0.0502,0.0379,-0.0611,-0.0391,20.56
10667997927500,36967,-9.8357,-0.0120,-0.0909,0.0342,-0.0709,-0.0489,20.55
10668010333400,36978,-9.8094,-0.0120,-0.0754,0.0244,-0.0257,-0.0379,20.55
10668021072400,36990,-9.8213,-0.0766,-0.0754,0.0281,-0.0623,-0.0330,20.55
10668031685900,37001,-9.8118,-0.0730,-0.0933,0.0244,-0.0709,-0.0354,20.53
10668043753500,37012,-9.8094,-0.0156,-0.1328,0.0354,-0.0538,-0.0293,20.53
10668055642000,37024,-9.8189,-0.0431,-0.0897,0.0635,-0.0709,-0.0318,20.52
10668065998300,37035,-9.8178,-0.0347,-0.0682,0.0757,-0.0648,-0.0110,20.52
10668076860600,37046,-9.7854,0.0323,-0.0538,0.0709,-0.0538,-0.0061,20.57
10668088422900,37058,-9.7998,0.0443,-0.0778,0.0476,-0.0648,-0.0244,20.57
10668099859600,37069,-9.8213,0.0167,-0.0156,0.0269,-0.0513,-0.0244,20.54
10668110838600,37080,-9.8178,0.0431,-0.0610,0.0293,-0.0525,-0.0354,20.55
10668123002800,37092,-9.8082,0.0203,-0.0491,0.0257,-0.0403,-0.0354,20.55
10668133867800,37103,-9.8166,0.0048,-0.0849,0.0183,-0.0415,-0.0476,20.54
10668145263400,37114,-9.8142,0.0263,-0.1244,0.0171,-0.0330,-0.0428,20.54
10668156375500,37126,-9.8082,0.0263,-0.1172,0.0183,-0.0415,-0.0476,20.59
10668167634800,37137,-9.7998,0.0191,-0.1472,0.0183,-0.0354,-0.0269,20.59
10668178801800,37148,-9.8285,-0.0706,-0.0909,0.0147,-0.0318,-0.0476,20.57
10668191447000,37159,-9.8201,-0.0730,-0.1089,0.0037,-0.0476,-0.0428,20.58
10668201968200,37171,-9.8058,-0.0060,-0.1615,0.0086,-0.0721,-0.0415,20.58
10668212778900,37182,-9.8237,-0.0048,-0.1974,0.0159,-0.0525,-0.0134,20.53
10668224556000,37193,-9.8225,-0.0347,-0.1149,0.0220,-0.0550,-0.0037,20.53
10668236335200,37205,-9.7974,0.1029,-0.1316,0.0134,-0.0318,-0.0012,20.55
10668246780400,37216,-9.8022,0.0227,-0.1675,-0.0049,-0.0159,-0.0269,20.55
10668257860400,37228,-9.8118,-0.1256,-0.1208,0.0220,-0.0476,-0.0342,20.56
10668270549300,37239,-9.8022,0.0347,-0.1089,0.0293,-0.0342,-0.0244,20.53
10668280601600,37250,-9.8130,0.0108,-0.0694,0.0171,-0.0305,-0.0208,20.53
10668291848200,37261,-9.8094,0.0909,-0.1687,-0.0012,-0.0525,-0.0440,20.55
10668303187200,37273,-9.8130,0.0909,-0.1424,-0.0012,-0.0574,-0.0269,20.55
10668314903900,37284,-9.8082,0.0000,-0.1101,0.0098,-0.0476,-0.0159,20.56
10668326051300,37295,-9.7771,-0.0371,-0.1675,0.0073,-0.0623,-0.0281,20.56
10668337333700,37307,-9.8166,-0.0491,-0.1531,0.0073,-0.0586,-0.0403,20.61
10668348604200,37318,-9.7950,-0.0670,-0.0179,0.0195,-0.0538,-0.0220,20.61
10668360112400,37329,-9.8106,-0.0203,-0.1196,0.0134,-0.0855,-0.0440,20.55
10668371756400,37341,-9.8249,-0.0299,-0.1161,0.0208,-0.0696,-0.0330,20.52
10668382852300,37352,-9.8010,0.0012,-0.0275,0.0037,-0.0538,-0.0391,20.52
10668393902900,37363,-9.8357,0.0311,-0.0144,0.0024,-0.0293,-0.0293,20.57
10668405905700,37375,-9.8309,0.0359,-0.1029,-0.0232,-0.0281,-0.0415,20.57
10668417275800,37386,-9.7854,-0.0538,-0.1184,-0.0232,-0.0513,-0.0476,20.57
10668427892900,37397,-9.7843,-0.1304,-0.1161,-0.0122,-0.0843,-0.0538,20.57
10668440058800,37409,-9.8369,0.0179,-0.1711,0.0232,-0.0709,-0.0049,20.56
10668451196900,37420,-9.7771,0.0443,-0.1878,0.0293,-0.0672,-0.0061,20.60
10668461952600,37431,-9.7926,0.0419,-0.1507,0.0122,-0.0599,-0.0318,20.60
10668473604500,37443,-9.8249,-0.0024,-0.0957,-0.0098,-0.0452,-0.0476,20.59
10668485035100,37454,-9.7938,0.0072,-0.0957,0.0195,-0.0330,-0.0134,20.59
10668496546400,37465,-9.7926,0.0562,-0.0706,0.0269,-0.0367,-0.0110,20.54
10668507901200,37477,-9.8261,0.0000,-0.0562,0.0061,-0.0293,-0.0379,20.54
10668518755500,37488,-9.7914,0.0455,-0.1089,0.0073,-0.0379,-0.0440,20.58
10668529872500,37499,-9.8022,0.1651,-0.0718,0.0110,-0.0195,-0.0476,20.57
10668541963000,37511,-9.8166,0.1268,-0.0993,0.0159,0.0073,-0.0244,20.57
10668553318000,37522,-9.8213,0.0778,-0.1376,0.0171,0.0061,-0.0037,20.59
10668563826200,37533,-9.8273,0.0311,-0.1113,0.0159,-0.0037,-0.0318,20.59
10668575342500,37544,-9.7878,0.0323,-0.0873,0.0110,0.0110,-0.0293,20.54
10668587268500,37556,-9.8106,0.1603,-0.0682,0.0183,0.0195,-0.0281,20.54
10668597926200,37567,-9.7974,0.0849,-0.0682,-0.0073,0.0134,-0.0244,20.54
10668609104300,37578,-9.8010,-0.0036,-0.1280,0.0159,-0.0195,0.0354,20.61
10668621523600,37590,-9.8166,0.0502,-0.1854,-0.0257,-0.0293,-0.0391,20.61
10668632779100,37601,-9.8489,0.1244,-0.2405,-0.0073,-0.0281,-0.0330,20.59
10668643254700,37612,-9.7878,0.1472,-0.1926,0.0073,-0.0208,-0.0305,20.59
10668654593400,37624,-9.7950,0.1256,-0.2309,-0.0281,-0.0098,-0.0611,20.54
10668666743600,37635,-9.8333,-0.0012,-0.2680,-0.0098,-0.0171,-0.0195,20.54
10668677180500,37646,-9.8154,-0.0981,-0.2333,-0.0318,-0.0159,-0.0330,20.56
10668689380400,37658,-10.0989,-0.1220,-0.2752,-0.0367,-0.0281,-0.0452,20.56
10668700809700,37669,-9.7819,-0.0849,-0.2608,-0.0147,-0.0379,-0.0513,20.54
10668711070900,37680,-9.8010,0.0586,-0.2118,-0.0159,-0.0464,-0.0562,20.58
10668723035700,37692,-9.8273,0.1077,-0.2010,-0.0098,-0.0562,-0.0293,20.58
10668734354700,37703,-9.8082,-0.0072,-0.2919,-0.0208,-0.0745,-0.0489,20.55
10668744976600,37714,-9.8189,0.0084,-0.3170,-0.0086,-0.0806,-0.0232,20.55
10668757040500,37726,-9.8118,-0.1376,-0.3206,0.0171,-0.0867,0.0012,20.56
10668768020100,37737,-9.7890,-0.2584,-0.3051,0.0098,-0.0892,-0.0086,20.56
10668779284900,37748,-9.7950,-0.0981,-0.1675,0.0281,-0.0880,-0.0220,20.53
10668790415000,37760,-9.7914,-0.1184,-0.1579,0.0195,-0.0941,-0.0415,20.55
10668802569800,37771,-9.8142,-0.0144,-0.1603,0.0269,-0.0855,-0.0415,20.55
10668813789200,37782,-9.8237,0.0443,-0.1232,0.0281,-0.0757,-0.0159,20.54
10668824992400,37794,-9.8309,0.0120,-0.1161,0.0208,-0.0745,-0.0049,20.54
10668836417500,37805,-9.8261,0.0036,-0.1484,0.0134,-0.0770,-0.0269,20.58
10668847602600,37816,-9.8154,-0.0431,-0.1412,-0.0037,-0.0745,-0.0464,20.58
10668858835500,37828,-9.8046,-0.0024,-0.1579,-0.0110,-0.0745,-0.0476,20.57
10668870271700,37839,-9.8130,-0.0981,-0.1651,-0.0220,-0.0635,-0.0464,20.53
10668881022400,37850,-9.8201,-0.0239,-0.1938,-0.0086,-0.0611,-0.0281,20.53
10668892404200,37862,-9.7986,-0.0251,-0.2118,-0.0037,-0.0648,-0.0281,20.60
10668904792400,37873,-9.7998,-0.0191,-0.2189,-0.0195,-0.0684,-0.0415,20.60
10668915770100,37884,-9.8034,0.0299,-0.2118,-0.0049,-0.0660,-0.0257,20.56
10668926268700,37896,-9.8477,-0.1232,-0.2010,-0.0232,-0.0501,-0.0220,20.56
10668938444800,37907,-9.8273,-0.1771,-0.2034,-0.0073,-0.0513,-0.0086,20.56
10668949742700,37918,-9.8022,-0.2022,-0.2512,-0.0086,-0.0586,-0.0428,20.56
10668960311300,37930,-9.8022,-0.1819,-0.2106,-0.0012,-0.0586,-0.0428,20.56
10668972375100,37941,-9.8022,-0.0455,-0.1543,-0.0110,-0.0452,-0.0367,20.57
10668982972300,37952,-9.8213,-0.0120,-0.1831,-0.0220,-0.0403,-0.0440,20.57
10668994150200,37963,-9.8082,0.0167,-0.1866,-0.0403,-0.0367,-0.0391,20.55
10669006147200,37975,-9.8285,0.0323,-0.1735,-0.0220,-0.0330,-0.0147,20.55
10669017151900,37986,-9.8237,-0.0849,-0.2177,-0.0476,-0.0305,-0.0501,20.55
10669028186800,37997,-9.7974,-0.1627,-0.1496,-0.0440,-0.0342,-0.0623,20.55
10669040185500,38009,-9.8285,0.0610,-0.1184,-0.0171,-0.0330,-0.0183,20.54
10669051382800,38020,-9.8201,0.0383,-0.1412,-0.0281,-0.0415,-0.0171,20.59
10669062592000,38031,-9.7890,0.1077,-0.1424,-0.0403,-0.0367,-0.0293,20.59
10669074364200,38043,-9.7986,0.1735,-0.1376,-0.0452,-0.0501,-0.0330,20.56
10669085326100,38054,-9.7819,0.0933,-0.1807,-0.0648,-0.0525,-0.0269,20.56
10669096055000,38065,-9.8010,-0.0215,-0.2094,-0.0843,-0.0501,-0.0489,20.62
10669109225800,38077,-9.8297,0.0502,-0.1651,-0.0757,-0.0586,-0.0379,20.62
10669118782800,38088,-9.7902,-0.0718,-0.1615,-0.0929,-0.0513,-0.0330,20.50
10669129982800,38099,-9.8237,-0.1878,-0.2118,-0.0721,-0.0513,-0.0367,20.59
10669142368200,38111,-9.8154,-0.0203,-0.1591,-0.0586,-0.0501,-0.0305,20.59
10669153248000,38122,-9.8070,0.2955,-0.0263,-0.0501,-0.0635,-0.0342,20.56
10669163838200,38133,-9.8070,0.2919,-0.0251,-0.0599,-0.0623,0.0110,20.56
10669175873000,38144,-9.7962,0.1149,-0.1340,-0.1014,-0.0623,-0.0269,20.56
10669187414900,38156,-9.7938,-0.0562,-0.2381,-0.0965,-0.0855,-0.0232,20.56
10669198236700,38167,-9.7866,-0.1460,-0.3003,-0.0990,-0.0574,-0.0318,20.59
10669209489700,38178,-9.8142,0.0156,-0.2955,-0.0586,-0.0586,-0.0440,20.58
10669221227300,38190,-9.7962,0.1651,-0.2082,-0.0611,-0.0586,-0.0293,20.58
10669232328000,38201,-9.7902,0.1244,-0.1376,-0.0867,-0.0684,-0.0342,20.56
10669243313300,38212,-9.8201,0.0526,-0.1519,-0.1002,-0.0660,-0.0538,20.56
10669254805400,38224,-9.8477,-0.0227,-0.1675,-0.0745,-0.0770,-0.0195,20.58
10669265715500,38235,-9.7819,-0.0084,-0.1711,-0.0770,-0.0953,-0.0269,20.58
10669277034100,38246,-9.7938,-0.1292,-0.2285,-0.0757,-0.1038,-0.0293,20.59
10669288976900,38258,-9.7831,-0.2106,-0.3242,-0.0293,-0.1014,-0.0049,20.57
10669300339800,38269,-9.8010,-0.2106,-0.3063,-0.0220,-0.0990,-0.0305,20.57
10669310940900,38280,-9.8369,-0.2584,-0.2764,-0.0147,-0.0916,-0.0440,20.57
10669322162600,38292,-9.8225,-0.2500,-0.2812,0.0086,-0.0953,-0.0281,20.57
10669333986900,38303,-9.7807,-0.2225,-0.2883,0.0195,-0.0757,-0.0110,20.60
10669345069900,38314,-9.7926,-0.0897,-0.1711,0.0171,-0.0648,-0.0391,20.60
10669357272400,38326,-9.8249,0.1196,-0.0060,0.0293,-0.0855,-0.0183,20.56
10669367156100,38337,-9.8417,0.1567,0.0263,0.0012,-0.0892,-0.0147,20.56
10669379268800,38348,-9.7878,0.0072,-0.1496,-0.0330,-0.0867,-0.0330,20.56
10669392290800,38360,-9.7914,0.0610,-0.1555,-0.0318,-0.1002,-0.0318,20.57
10669402061100,38371,-9.8058,0.0072,-0.2034,-0.0513,-0.0709,-0.0342,20.57
10669413103100,38382,-9.8309,-0.0790,-0.2357,-0.0648,-0.0538,-0.0452,20.59
10669425821000,38394,-9.8178,-0.0634,-0.2010,-0.0721,-0.0696,-0.0489,20.59
10669436142400,38405,-9.8178,-0.0084,-0.1687,-0.0806,-0.0696,-0.0525,20.58
10669447215400,38416,-9.8249,-0.1125,-0.2070,-0.0696,-0.0709,-0.0305,20.58
10669459068000,38428,-9.7866,-0.2620,-0.3398,-0.0305,-0.0574,-0.0269,20.58
10669470850200,38439,-9.8166,-0.1699,-0.3039,-0.0147,-0.0464,-0.0269,20.58
10669481249800,38450,-9.8154,-0.0921,-0.2812,-0.0073,-0.0428,-0.0134,20.58
10669492545600,38462,-9.7938,0.0132,-0.2022,-0.0147,-0.0525,-0.0244,20.60
10669503733500,38473,-9.7747,-0.0574,-0.1950,-0.0269,-0.0489,-0.0415,20.60
10669515780100,38484,-9.8058,-0.0383,-0.1519,-0.0354,-0.0525,-0.0342,20.56
10669526713600,38496,-9.8381,0.0502,-0.0873,-0.0415,-0.0648,-0.0293,20.56
10669538237700,38507,-9.8213,0.1220,-0.0156,-0.0562,-0.0782,-0.0379,20.55
10669549223400,38518,-9.8249,-0.0311,-0.2058,-0.0428,-0.0831,-0.0403,20.57
10669560247400,38530,-9.7819,0.0251,-0.2524,-0.0525,-0.0611,-0.0391,20.57
10669572180300,38541,-9.8082,0.0419,-0.2201,-0.0611,-0.0562,-0.0342,20.59
10669583208500,38552,-9.8285,-0.0156,-0.2154,-0.0599,-0.0550,-0.0208,20.59
10669594287800,38564,-9.8118,-0.0179,-0.2106,-0.0648,-0.0623,-0.0464,20.61
10669605468100,38575,-9.8118,-0.0096,-0.1878,-0.0709,-0.0354,-0.0415,20.61
10669617398600,38586,-9.8034,0.0491,-0.1352,-0.0501,-0.0525,-0.0318,20.57
10669628335700,38597,-9.8130,0.0491,-0.1579,-0.0880,-0.0782,-0.0244,20.55
10669640328800,38609,-9.7747,0.0335,-0.2381,-0.0904,-0.0635,-0.0379,20.55
10669651092200,38620,-9.8022,-0.0108,-0.2321,-0.0941,-0.0452,-0.0538,20.55
10669662239100,38631,-9.8345,-0.1137,-0.2500,-0.0782,-0.0513,-0.0574,20.55
10669674328800,38643,-9.8022,-0.1663,-0.2871,-0.0721,-0.0501,-0.0525,20.56
10669684905500,38654,-9.7938,-0.1376,-0.2979,-0.0660,-0.0489,-0.0415,20.56
10669696027600,38665,-9.8058,-0.0634,-0.2465,-0.0709,-0.0354,-0.0293,20.56
10669707962800,38677,-9.7950,0.0502,-0.1352,-0.0489,-0.0415,0.0049,20.56
10669719130400,38688,-9.8285,0.0538,-0.0550,-0.0709,-0.0745,-0.0550,20.58
10669730930200,38699,-9.8142,0.1077,-0.0730,-0.0855,-0.0806,-0.0635,20.59
10669742891000,38711,-9.8237,0.1340,-0.0945,-0.0929,-0.0757,-0.0660,20.59
10669753411400,38722,-9.8082,0.1149,-0.1077,-0.0977,-0.0696,-0.0440,20.59
10669765013300,38733,-9.7807,0.0383,-0.1615,-0.0916,-0.0696,-0.0318,20.59
10669777005000,38745,-9.8285,-0.1077,-0.1938,-0.1038,-0.0452,-0.0342,20.57
10669787482700,38756,-9.8142,-0.1161,-0.1771,-0.0745,-0.0599,-0.0330,20.57
10669798578400,38767,-9.8189,-0.0885,-0.1053,-0.0684,-0.0806,-0.0257,20.55
10669809573200,38779,-9.8213,-0.0550,-0.0706,-0.0916,-0.0611,-0.0367,20.59
10669821688300,38790,-9.8273,0.0885,0.0263,-0.0696,-0.0770,-0.0208,20.59
10669832557000,38801,-9.7831,0.1388,0.0371,-0.1026,-0.0916,-0.0244,20.57
10669843548300,38813,-9.7950,0.1149,0.0227,-0.1368,-0.0745,-0.0586,20.57
10669855073800,38824,-9.8620,0.0167,-0.0299,-0.1491,-0.0721,-0.0525,20.56
10669866392900,38835,-9.8249,0.0586,-0.0371,-0.1600,-0.0904,-0.0293,20.56
10669877767100,38847,-9.7807,-0.0203,-0.0526,-0.1625,-0.1026,-0.0208,20.55
10669889492900,38858,-9.8094,-0.2225,-0.1292,-0.1319,-0.0929,-0.0550,20.54
10669900478600,38869,-9.8166,-0.0706,-0.0814,-0.1283,-0.1087,-0.0208,20.54
10669910835800,38881,-9.8285,-0.1184,-0.1316,-0.1271,-0.0916,-0.0293,20.57
10669922948800,38892,-9.8070,-0.0275,-0.0682,-0.1246,-0.1087,-0.0452,20.57
10669934177100,38903,-9.7962,0.0120,-0.0694,-0.1429,-0.1026,-0.0391,20.54
10669945037000,38915,-9.8130,-0.1639,-0.1890,-0.1417,-0.0757,-0.0293,20.54
10669957705000,38926,-9.8058,-0.2333,-0.2512,-0.1222,-0.0684,-0.0330,20.55
10669968591700,38937,-9.8154,-0.1101,-0.2213,-0.1246,-0.0696,-0.0464,20.57
10669979295200,38949,-9.8178,-0.1723,-0.2369,-0.0953,-0.0819,-0.0428,20.57
10669991261500,38960,-9.8082,-0.1842,-0.1723,-0.0867,-0.0843,-0.0428,20.57
10670002682400,38971,-9.7938,-0.1017,-0.1065,-0.0672,-0.0855,-0.0367,20.57
10670014175600,38983,-9.8094,-0.0227,-0.0957,-0.0831,-0.1002,-0.0403,20.55
10670025470600,38994,-9.8070,0.0562,-0.0814,-0.1002,-0.1026,-0.0330,20.55
10670036789200,39005,-9.8082,0.0945,-0.0670,-0.1063,-0.1100,-0.0269,20.59
10670048079000,39017,-9.8178,0.0909,-0.0419,-0.1161,-0.1271,-0.0330,20.59
10670059170200,39028,-9.8273,-0.0072,-0.1591,-0.0965,-0.1136,-0.0354,20.57
10670070619500,39039,-9.8094,-0.0491,-0.2417,-0.0965,-0.1210,-0.0342,20.56
10670081306200,39051,-9.8022,-0.0981,-0.2572,-0.1026,-0.0806,-0.0367,20.56
10670093162900,39062,-9.8058,-0.0957,-0.1902,-0.0806,-0.0916,-0.0464,20.57
10670104683500,39073,-9.8094,-0.0502,-0.1460,-0.0929,-0.1087,-0.0574,20.57
10670115317400,39085,-9.8273,0.0203,-0.0778,-0.0880,-0.1185,-0.0428,20.56
10670127596100,39096,-9.8094,0.0562,-0.0491,-0.1014,-0.1381,-0.0367,20.56
10670138943200,39107,-9.8189,-0.1149,-0.1089,-0.0721,-0.1319,-0.0354,20.59
10670149666900,39119,-9.8130,-0.0646,-0.1388,-0.0916,-0.1246,-0.0305,20.59
10670160508900,39130,-9.8166,0.0000,-0.0969,-0.0867,-0.1210,-0.0354,20.59
10670173075300,39141,-9.8082,0.0024,-0.0467,-0.1002,-0.1087,-0.0379,20.55
10670183790200,39153,-9.7938,-0.0132,0.0036,-0.1075,-0.1002,-0.0354,20.55
10670194891500,39164,-9.8201,-0.0682,0.0598,-0.0990,-0.0965,-0.0293,20.55
10670206685600,39175,-9.8142,-0.0694,0.0730,-0.0684,-0.1197,-0.0354,20.55
10670217932400,39187,-9.8130,-0.0395,0.0826,-0.0709,-0.1148,-0.0501,20.59
10670229463300,39198,-9.8273,0.1460,0.2345,-0.1393,-0.1063,-0.0415,20.57
10670240382600,39209,-9.8070,0.1376,0.2034,-0.1527,-0.1063,-0.0367,20.57
10670251958400,39221,-9.8249,-0.0012,0.1591,-0.1478,-0.1063,-0.0635,20.59
10670262372900,39232,-9.8513,-0.0802,0.0873,-0.1710,-0.1112,-0.0501,20.59
10670275268600,39243,-9.8058,-0.1017,0.0682,-0.1894,-0.0904,-0.0171,20.58
10670285583000,39254,-9.8082,-0.1244,0.1005,-0.2004,-0.0880,-0.0269,20.58
10670296468200,39266,-9.8213,-0.1161,0.0323,-0.1723,-0.0855,-0.0110,20.58
10670309172000,39277,-9.8130,-0.1268,0.0634,-0.1246,-0.0953,-0.0391,20.56
10670318917000,39288,-9.8154,-0.1400,0.0167,-0.1051,-0.1112,-0.0513,20.56
10670330545700,39300,-9.8201,-0.1735,-0.0395,-0.1332,-0.0757,-0.0440,20.57
10670341952300,39311,-9.8118,-0.1878,-0.0718,-0.1307,-0.0684,-0.0281,20.57
10670354104500,39322,-9.8189,-0.1543,-0.0897,-0.0904,-0.0794,-0.0391,20.57
10670364826000,39334,-9.8321,-0.1579,-0.0323,-0.0929,-0.0794,-0.0379,20.57
10670376457200,39345,-9.8106,-0.1591,0.0287,-0.0977,-0.0733,-0.0232,20.56
10670387932400,39356,-9.8094,-0.1232,0.0287,-0.0794,-0.0843,-0.0281,20.56
10670398856200,39368,-9.8237,-0.0670,0.0814,-0.1063,-0.0855,-0.0122,20.57
10670409871200,39379,-9.8046,-0.0179,0.1029,-0.1026,-0.0953,-0.0147,20.58
10670421149400,39390,-9.8094,-0.0144,0.1089,-0.0965,-0.1136,-0.0318,20.58
10670432150500,39402,-9.8225,-0.0072,0.1340,-0.1014,-0.1100,-0.0330,20.60
10670443522400,39413,-9.8261,-0.0311,0.1436,-0.0965,-0.0843,-0.0195,20.60
10670455212900,39424,-9.8106,-0.0215,0.1292,-0.1344,-0.0953,-0.0281,20.59
10670466535400,39436,-9.8106,-0.0072,0.1053,-0.1356,-0.0867,-0.0342,20.59
10670477539900,39447,-9.8225,-0.0778,0.0335,-0.1234,-0.0623,-0.0391,20.56
10670489638300,39458,-9.8010,-0.0562,0.0251,-0.1234,-0.0538,-0.0428,20.58
10670500767300,39470,-9.8082,-0.0514,0.0132,-0.1100,-0.0501,-0.0403,20.58
10670511625900,39481,-9.8213,-0.0072,0.0706,-0.1319,-0.0562,-0.0415,20.59
10670523379100,39492,-9.8082,0.0287,0.0562,-0.1381,-0.0855,-0.0367,20.59
10670534193200,39504,-9.8070,0.0132,0.0347,-0.1222,-0.0855,-0.0293,20.61
10670545297700,39515,-9.8273,-0.0036,0.0443,-0.1014,-0.0855,-0.0269,20.61
10670557981000,39526,-9.8237,-0.0383,-0.0239,-0.0941,-0.0770,-0.0293,20.59
10670568604000,39537,-9.8094,-0.0706,0.0383,-0.0599,-0.0623,-0.0428,20.61
10670579257300,39549,-9.8297,-0.0012,0.0311,-0.0733,-0.0623,-0.0391,20.61
10670591572700,39560,-9.8357,-0.0012,0.0275,-0.0696,-0.0794,-0.0281,20.59
10670602758400,39571,-9.8309,-0.0514,0.0945,-0.0806,-0.0635,-0.0122,20.59
10670613121900,39583,-9.8046,0.0024,0.1472,-0.0660,-0.0635,-0.0122,20.57
10670626361100,39594,-9.7998,0.0826,0.1507,-0.0794,-0.0794,-0.0330,20.57
10670636418100,39605,-9.7890,0.1029,0.1065,-0.0892,-0.0904,-0.0428,20.58
10670648064600,39617,-9.8321,-0.0790,0.0407,-0.0721,-0.0831,-0.0354,20.58
10670659003700,39628,-9.8118,-0.0598,0.0526,-0.0073,-0.0855,-0.0318,20.54
10670671030200,39639,-9.8213,-0.1412,0.0323,-0.0061,-0.0770,-0.0318,20.57
10670682171300,39651,-9.8429,-0.1831,0.0574,-0.0098,-0.0599,-0.0257,20.57
10670693745600,39662,-9.8118,-0.1041,0.1161,-0.0354,-0.1014,-0.0208,20.62
10670704286500,39673,-9.8094,-0.0526,0.1400,-0.0244,-0.0867,-0.0269,20.62
10670716382900,39685,-9.8142,-0.0622,0.2046,-0.0134,-0.0880,-0.0318,20.58
10670727047300,39696,-9.8058,-0.0826,0.2297,-0.0110,-0.0660,-0.0476,20.58
10670738842700,39707,-9.8309,-0.0550,0.1412,-0.0415,-0.0721,-0.0367,20.58
10670749817500,39719,-9.8273,-0.0383,0.1663,-0.0476,-0.0916,-0.0208,20.61
10670760745100,39730,-9.7962,-0.0598,0.1831,-0.0611,-0.0916,-0.0122,20.61
10670773206900,39741,-9.8189,-0.0921,0.1196,-0.0293,-0.0550,-0.0293,20.60
10670783885100,39753,-9.8189,-0.0215,0.1615,-0.0586,-0.0819,-0.0379,20.60
10670795619400,39764,-9.7843,0.0419,0.1759,-0.0709,-0.0904,-0.0330,20.57
10670806491100,39775,-9.8249,-0.0371,0.0610,-0.0819,-0.0586,-0.0440,20.57
10670817870400,39787,-9.8213,-0.0861,0.0108,-0.0635,-0.0660,-0.0305,20.59
10670828597200,39798,-9.8441,-0.1208,0.0359,-0.0391,-0.0757,-0.0342,20.56
10670840646400,39809,-9.8178,-0.1639,0.1448,-0.0476,-0.0660,-0.0367,20.56
10670852165400,39821,-9.8178,-0.1137,0.2213,-0.0550,-0.0819,-0.0183,20.56
10670862508000,39832,-9.8082,-0.0132,0.2644,-0.0696,-0.0855,-0.0293,20.56
10670874563400,39843,-9.7998,0.0311,0.2393,-0.0770,-0.0806,-0.0318,20.57
10670885702200,39854,-9.8297,0.0431,0.1029,-0.0843,-0.0757,-0.0354,20.57
10670896760000,39866,-9.8297,0.0455,0.1436,-0.0672,-0.0648,-0.0208,20.58
10670909145900,39877,-9.8022,0.0778,0.0885,-0.0586,-0.0476,-0.0489,20.54
10670919705600,39888,-9.8369,0.0072,0.1663,-0.0696,-0.0428,-0.0391,20.54
10670930800200,39900,-9.8225,-0.0167,0.1196,-0.0770,-0.0819,-0.0269,20.59
10670942918500,39911,-9.7998,-0.0574,0.1184,-0.0513,-0.0599,-0.0110,20.59
10670953299000,39922,-9.8070,-0.0299,0.0969,-0.0318,-0.0440,-0.0281,20.61
10670964673400,39934,-9.8237,0.0491,0.0622,-0.0171,-0.0391,-0.0281,20.61
10670977171600,39945,-9.8189,0.0538,0.0778,-0.0134,-0.0391,-0.0305,20.55
10670988312800,39956,-9.8189,-0.0491,-0.1017,-0.0110,-0.0562,-0.0415,20.55
10670999210400,39968,-9.8070,-0.0814,-0.0156,0.0757,-0.0293,-0.0061,20.58
10671010035000,39979,-9.8058,-0.1507,-0.0167,0.0770,-0.0525,-0.0134,20.58
10671022001000,39990,-9.8046,-0.1675,-0.0024,0.0721,-0.0476,-0.0257,20.58
10671033181700,40002,-9.8178,-0.0670,0.1029,0.0415,-0.0586,-0.0305,20.56
10671044128100,40013,-9.8345,0.0012,0.1531,0.0415,-0.0415,-0.0269,20.56
10671055877200,40024,-9.8297,-0.0096,0.1376,0.0513,-0.0562,-0.0147,20.56
10671066952700,40036,-9.8201,-0.0586,0.0957,0.0208,-0.0733,-0.0134,20.56
10671077818100,40047,-9.8142,-0.1579,0.1364,0.0367,-0.0574,-0.0318,20.54
10671090072400,40058,-9.8237,-0.1172,0.1866,0.0171,-0.0855,-0.0354,20.59
10671101245800,40070,-9.8046,-0.0167,0.1831,-0.0061,-0.0843,-0.0342,20.59
10671112169800,40081,-9.8273,0.0407,0.2010,-0.0061,-0.0403,-0.0257,20.59
10671125201400,40092,-9.8345,0.0550,0.2309,-0.0110,-0.0648,-0.0428,20.59
10671135256800,40104,-9.8022,0.0156,0.1795,-0.0415,-0.0794,-0.0305,20.57
10671146099500,40115,-9.7986,-0.0239,0.1220,-0.0342,-0.0672,-0.0220,20.57
10671157488300,40126,-9.8213,-0.0610,0.1041,-0.0391,-0.0977,-0.0367,20.57
10671169003800,40138,-9.8130,-0.1065,0.0694,0.0061,-0.0599,-0.0342,20.56
10671180084500,40149,-9.8273,-0.0837,0.0754,-0.0049,-0.0525,-0.0367,20.56
10671191747700,40160,-9.8130,-0.1208,0.0730,-0.0086,-0.0342,-0.0220,20.55
10671203338200,40172,-9.8070,-0.0969,0.0562,-0.0257,-0.0611,-0.0391,20.55
10671213801400,40183,-9.8034,-0.0718,0.0586,0.0098,-0.0489,-0.0367,20.59
10671226037600,40194,-9.8369,-0.0897,0.0598,-0.0024,-0.0440,-0.0318,20.59
10671237126400,40206,-9.8261,-0.0203,0.0706,-0.0073,-0.0648,-0.0159,20.59
10671247734500,40217,-9.8082,0.0359,0.0885,0.0110,-0.0648,0.0024,20.60
10671260084400,40228,-9.8201,-0.0514,0.1089,0.0269,-0.0684,0.0000,20.60
10671271107900,40240,-9.8118,0.0072,0.0132,-0.0232,-0.1283,-0.0086,20.58
10671281516400,40251,-9.8321,0.0060,0.0191,0.0159,-0.0892,-0.0061,20.58
10671293840700,40262,-9.8261,-0.0179,0.1232,-0.0147,-0.0757,-0.0134,20.61
10671305199100,40274,-9.7890,-0.0120,0.1424,-0.0049,-0.0538,-0.0171,20.61
10671315767400,40285,-9.8178,-0.0849,0.1101,-0.0171,-0.0452,-0.0281,20.59
10671327556100,40296,-9.8106,0.0455,0.0730,-0.0391,-0.0440,-0.0220,20.59
10671339219600,40308,-9.8333,-0.0622,0.0622,-0.0293,-0.0452,-0.0232,20.57
10671350277100,40319,-9.8010,-0.0981,0.1137,-0.0562,-0.0562,-0.0281,20.56
10671361131500,40330,-9.7926,-0.0670,0.0754,-0.0464,-0.0403,-0.0244,20.56
10671372425900,40342,-9.8082,-0.1196,0.1615,-0.0330,-0.0318,-0.0110,20.59
10671383704200,40353,-9.8309,-0.0802,0.1316,-0.0403,-0.0354,-0.0305,20.59
10671395739300,40364,-9.8393,0.0718,-0.0048,-0.0342,-0.0305,-0.0354,20.58
10671407161400,40376,-9.8261,0.0395,0.0706,0.0037,0.0049,-0.0159,20.58
10671418367300,40387,-9.7950,0.0048,0.0945,-0.0709,-0.0586,-0.0379,20.57
10671429070600,40398,-9.8201,0.0036,0.0993,-0.0330,-0.0354,-0.0171,20.62
10671441433900,40409,-9.8213,-0.0311,0.1627,-0.0464,-0.0464,-0.0244,20.62
10671452307400,40421,-9.8154,0.1244,0.1304,-0.0391,-0.0574,-0.0281,20.56
10671462817500,40432,-9.8154,0.0167,0.1125,0.0061,-0.0232,-0.0232,20.56
10671475442000,40443,-9.8154,-0.0407,0.1579,-0.0330,-0.0464,-0.0452,20.57
10671486113800,40455,-9.8178,0.1914,0.1460,-0.0281,-0.0452,-0.0318,20.57
10671497091100,40466,-9.8070,0.0814,0.1172,-0.0367,-0.0208,-0.0269,20.58
10671509640900,40477,-9.8118,-0.0323,0.1149,-0.0489,-0.0464,-0.0195,20.57
10671520121100,40489,-9.8273,-0.0706,0.0622,-0.0318,-0.0550,-0.0244,20.57
10671530661500,40500,-9.8249,-0.0455,0.0251,-0.0342,-0.0709,-0.0330,20.60
10671542952400,40511,-9.8189,-0.0395,0.0167,0.0086,-0.0464,-0.0330,20.60
10671553953600,40523,-9.7974,-0.0467,0.0754,-0.0354,-0.0672,-0.0476,20.59
10671564967400,40534,-9.7866,-0.0574,0.1005,-0.0183,-0.0635,-0.0342,20.59
10671576433500,40545,-9.8369,-0.0634,0.0873,-0.0318,-0.0428,-0.0318,20.60
10671587808500,40557,-9.7878,0.0598,0.1579,-0.0855,-0.0745,-0.0489,20.61
10671598917600,40568,-9.8094,0.0562,0.0598,-0.0513,-0.0367,-0.0586,20.61
10671610764200,40579,-9.8536,-0.0251,0.1424,-0.0623,-0.0513,-0.0489,20.59
10671622139000,40591,-9.8285,0.0156,0.1472,-0.0269,-0.0342,-0.0147,20.59
10671632661000,40602,-9.7878,-0.1005,0.0993,-0.0232,-0.0696,-0.0208,20.56
10671643976200,40613,-9.8070,-0.0287,0.0120,-0.0024,-0.0819,-0.0342,20.56
10671656037700,40625,-9.8118,-0.0610,0.0419,0.0305,-0.0733,-0.0257,20.59
10671666710600,40636,-9.7998,-0.0706,0.0837,0.0257,-0.0819,-0.0195,20.59
10671678093300,40647,-9.8058,-0.0383,0.0467,-0.0110,-0.0684,-0.0367,20.56
10671690735700,40659,-9.8094,0.0036,0.0957,-0.0159,-0.0574,-0.0428,20.59
10671700831900,40670,-9.8225,0.0742,0.1220,-0.0147,-0.0501,-0.0464,20.59
10671711972700,40681,-9.8333,0.1089,0.0945,-0.0073,-0.0464,-0.0195,20.57
10671724526100,40692,-9.8082,0.0024,0.0873,-0.0110,-0.0770,-0.0110,20.57
10671735082700,40704,-9.7998,-0.0383,0.0885,-0.0159,-0.1014,-0.0244,20.57
10671746058700,40715,-9.8237,0.0048,0.0550,0.0195,-0.0855,-0.0208,20.57
10671758401500,40726,-9.8070,-0.0933,0.0550,0.0428,-0.0916,-0.0367,20.55
10671769344100,40738,-9.8106,-0.0550,-0.0120,0.0305,-0.0831,-0.0379,20.58
10671780368900,40749,-9.8189,-0.0682,0.0048,0.0183,-0.0721,-0.0293,20.58
10671792525000,40761,-9.8178,-0.1065,0.0443,-0.0110,-0.0904,-0.0342,20.59
10671802991100,40772,-9.8201,-0.1400,0.1041,0.0110,-0.0782,-0.0073,20.59
10671814257200,40783,-9.8142,-0.1878,0.1268,-0.0098,-0.0977,-0.0379,20.54
10671825891300,40794,-9.8189,-0.2034,0.1161,0.0024,-0.0880,-0.0293,20.54
10671837190600,40806,-9.8189,-0.1388,0.1472,-0.0244,-0.1100,-0.0452,20.57
10671848250100,40817,-9.8261,-0.1005,0.1448,-0.0049,-0.0965,-0.0269,20.57
10671859928600,40828,-9.8070,-0.1340,0.1041,-0.0024,-0.0867,-0.0452,20.57
10671870766200,40840,-9.7950,-0.1567,0.0790,-0.0403,-0.1087,-0.0574,20.57
10671881690100,40851,-9.8154,-0.1436,0.1053,0.0037,-0.0757,-0.0293,20.57
10671894917400,40862,-9.8393,-0.1292,0.1400,-0.0183,-0.0794,-0.0318,20.59
10671904996000,40874,-9.8225,-0.1436,0.1639,-0.0049,-0.0819,-0.0061,20.59
10671916172000,40885,-9.8058,-0.0826,0.1615,-0.0147,-0.0843,-0.0354,20.59
10671927775800,40896,-9.8369,-0.0132,0.2369,-0.0037,-0.0611,-0.0525,20.53
10671939349800,40908,-9.8142,0.0275,0.2441,-0.0012,-0.0403,-0.0452,20.53
10671949810000,40919,-9.7986,-0.0837,0.2177,-0.0269,-0.0538,-0.0342,20.58
10671961234000,40930,-9.8130,-0.0311,0.1531,-0.0183,-0.0489,-0.0305,20.58
10671973307100,40942,-9.8405,-0.0682,0.1184,-0.0244,-0.0440,-0.0330,20.55
10671984189200,40953,-9.8405,-0.1771,0.0778,-0.0318,-0.0586,-0.0073,20.55
10671995676300,40964,-9.7878,-0.0945,0.0622,-0.0269,-0.0599,-0.0269,20.55
10672006709500,40976,-9.8178,-0.0431,0.1089,0.0086,-0.0623,-0.0367,20.55
10672018100400,40987,-9.7831,-0.0060,0.1208,0.0098,-0.0709,-0.0428,20.56
10672029044800,40998,-9.8273,-0.0371,0.1005,0.0220,-0.0819,-0.0195,20.55
10672041502000,41010,-9.8560,0.2142,0.0885,0.0195,-0.0904,-0.0318,20.55
10672052476100,41021,-9.8154,0.1448,0.0682,0.0183,-0.0745,-0.0428,20.54
10672062893200,41032,-9.7819,0.1161,0.0909,0.0110,-0.0623,-0.0208,20.54
10672075395100,41044,-9.8166,0.0658,0.1555,0.0244,-0.0415,-0.0281,20.59
10672086348000,41055,-9.8357,0.0945,0.1292,-0.0281,-0.0538,-0.0513,20.59
10672097203500,41066,-9.8094,0.0000,0.1328,0.0037,-0.0550,-0.0379,20.54
10672109159600,41078,-9.8429,-0.0538,0.0802,0.0049,-0.0696,-0.0195,20.57
10672120101600,41089,-9.8285,-0.1172,0.0598,0.0049,-0.0904,-0.0086,20.57
10672131194800,41100,-9.8058,-0.0826,0.0395,-0.0122,-0.1051,-0.0330,20.54
10672142732600,41112,-9.8142,-0.0443,-0.0156,0.0024,-0.1038,-0.0330,20.54
10672154520300,41123,-9.8261,-0.0108,0.0191,0.0134,-0.0904,-0.0147,20.59
10672164761900,41134,-9.8094,0.0610,0.0682,0.0122,-0.0855,-0.0183,20.59
10672177299100,41145,-9.8393,0.0610,0.0742,0.0220,-0.0867,-0.0257,20.57
10672188455000,41157,-9.7771,0.0957,0.1352,0.0501,-0.0696,-0.0147,20.56
10672199064800,41168,-9.8237,0.0562,0.1771,0.0305,-0.0745,-0.0354,20.56
10672211121800,41179,-9.8261,0.0730,0.1831,0.0367,-0.0782,-0.0269,20.57
10672222809200,41191,-9.8393,0.0646,0.1819,0.0501,-0.0855,-0.0037,20.57
10672232689200,41202,-9.8082,-0.0431,0.1364,0.0318,-0.0941,-0.0220,20.54
10672244886800,41213,-9.7878,-0.0502,0.0802,0.0318,-0.1026,-0.0318,20.54
10672256362700,41225,-9.8321,0.0957,0.0933,0.0367,-0.1112,-0.0244,20.59
10672266631200,41236,-9.8261,-0.0060,0.0921,0.0464,-0.1100,-0.0183,20.55
10672278437300,41247,-9.8249,-0.0826,0.1747,0.0428,-0.1173,-0.0403,20.55
10672290252100,41259,-9.8620,-0.1424,0.1783,0.0476,-0.1210,-0.0379,20.57
10672301359200,41270,-9.8357,-0.1543,0.1687,0.0757,-0.1063,-0.0232,20.57
10672312049600,41281,-9.7878,-0.2010,0.1723,0.0745,-0.0953,-0.0476,20.57
10672324253800,41293,-9.8201,-0.0502,0.2022,0.1026,-0.0782,-0.0489,20.57
10672335180000,41304,-9.8094,-0.0060,0.2620,0.1026,-0.0623,-0.0648,20.60
10672345994300,41315,-9.7914,0.0502,0.3194,0.1063,-0.0525,-0.0476,20.60
10672357206700,41327,-9.8477,0.1831,0.3625,0.0721,-0.0257,-0.0550,20.59
10672368324900,41338,-9.8070,0.0502,0.3027,0.0525,-0.0367,-0.0501,20.57
10672380028500,41349,-9.7938,-0.0156,0.2417,0.0550,-0.0476,-0.0208,20.57
10672391169900,41361,-9.8118,-0.0108,0.2273,0.0476,-0.0501,-0.0354,20.56
10672402747100,41372,-9.8082,-0.0395,0.1914,0.0342,-0.0525,-0.0550,20.56
10672414374100,41383,-9.7878,0.0359,0.1699,0.0403,-0.0648,-0.0330,20.60
10672427252600,41395,-9.8070,0.0467,0.1926,0.0880,-0.0660,0.0354,20.60
10672437761400,41406,-9.8309,-0.1292,0.0981,0.0599,-0.0867,-0.0293,20.60
10672448166200,41417,-9.8716,0.0766,0.1364,0.0770,-0.0867,-0.0134,20.58
10672460495200,41429,-9.8249,0.0144,0.1496,0.0574,-0.0745,-0.0244,20.58
10672471617500,41440,-9.7866,-0.0718,0.1125,0.0538,-0.0733,-0.0208,20.58
10672482565100,41451,-9.8201,-0.0191,0.1436,0.0550,-0.0611,-0.0269,20.58
10672494446900,41463,-9.7890,-0.1113,0.1615,0.0635,-0.0513,-0.0293,20.59
10672505743300,41474,-9.7866,-0.1292,0.1531,0.0855,-0.0440,-0.0049,20.59
10672516042900,41485,-9.8225,-0.1244,0.1747,0.1002,-0.0440,-0.0122,20.59
